subj,session,run,run_trial,context,cue_idx,cue,context_switch,cue_switch,hue_switch,ori_switch,hue,ori,congruent,hue_diff,ori_diff,hue_prop,ori_prop,hue_strength,ori_strength,context_prop,context_strength,iti_trs,iti,break,trial_time_tr,cue_time,stim_time,target_response,context_diff,distract_diff,distract_strength,distract_prop,cue_onset,stim_onset,correct,rt,response,key,stim_frames,dropped_frames,answered,log_switch_lag,log_switch_surprise
ti01,a,1,0,hue,1,3,True,True,hue,hue,red,left,True,hard,easy,0.46,0.25,0.04,0.25,0.46,0.04,0,0.0,False,0.0,0.02,0.72,False,hard,easy,0.25,0.25,0.0405969619751,0.714215993881,False,1.75033402443,1.0,9.0,105,0,True,0.0,0.0
ti01,a,1,1,hue,1,3,False,False,hue,hue,green,left,False,hard,easy,0.54,0.25,0.04,0.25,0.54,0.04,2,1.44,False,6.0,4.34,5.04,True,hard,easy,0.25,0.25,4.33203291893,5.04904389381,True,1.15073299408,1.0,9.0,69,0,True,0.69314718056,0.0
ti01,a,1,2,hue,1,3,False,False,hue,hue,green,right,True,hard,hard,0.54,0.53,0.04,0.03,0.54,0.04,1,0.72,False,14.0,10.1,10.8,True,hard,hard,0.03,0.53,10.0837638378,10.8005619049,True,0.966552019119,1.0,9.0,58,0,True,1.09861228867,0.0
ti01,a,1,3,ori,0,4,True,True,ori,ori,red,left,True,hard,hard,0.46,0.47,0.04,0.03,0.47,0.03,1,0.72,False,21.0,15.14,15.84,False,hard,hard,0.04,0.46,15.1186740398,15.8520388603,False,1.45085287094,1.0,9.0,87,0,True,0.0,0.69314718056
ti01,a,1,4,hue,0,6,True,True,hue,hue,green,right,True,easy,hard,0.64,0.53,0.14,0.03,0.64,0.14,1,0.72,False,28.0,20.18,20.88,True,easy,hard,0.03,0.53,20.170085907,20.8868649006,True,1.13444495201,1.0,9.0,68,0,True,0.0,0.0
ti01,a,1,5,hue,1,3,False,True,hue,hue,green,left,False,easy,hard,0.64,0.47,0.14,0.03,0.64,0.14,9,6.48,False,35.0,25.22,25.92,True,easy,hard,0.03,0.47,25.2049639225,25.9214630127,True,1.03394699097,1.0,9.0,62,0,True,0.69314718056,0.0
ti01,a,1,6,ori,0,4,True,True,ori,ori,red,left,True,hard,easy,0.46,0.25,0.04,0.25,0.25,0.25,1,0.72,False,50.0,36.02,36.72,False,easy,hard,0.04,0.46,36.0081110001,36.7248568535,True,1.7338218689,0.0,4.0,104,0,True,0.0,0.0
ti01,a,1,7,ori,1,5,False,True,ori,ori,green,left,False,hard,easy,0.54,0.25,0.04,0.25,0.25,0.25,0,0.0,False,57.0,41.06,41.76,False,easy,hard,0.04,0.54,41.0430688858,41.7597429752,True,1.23542094231,0.0,4.0,75,0,True,0.69314718056,0.0
ti01,a,1,8,ori,1,5,False,False,ori,ori,red,left,True,hard,easy,0.46,0.25,0.04,0.25,0.25,0.25,4,2.88,False,63.0,45.38,46.08,False,easy,hard,0.04,0.46,45.3609349728,46.0944468975,False,1.15141296387,1.0,9.0,69,0,True,1.09861228867,0.0
ti01,a,1,9,ori,0,4,False,True,ori,ori,green,right,True,easy,hard,0.64,0.53,0.14,0.03,0.53,0.03,0,0.0,False,73.0,52.58,53.28,True,hard,easy,0.14,0.64,52.5629909039,53.2800519466,True,1.38343501091,1.0,9.0,83,0,True,1.38629436112,0.69314718056
ti01,a,1,10,ori,0,4,False,False,ori,ori,green,right,True,hard,hard,0.54,0.53,0.04,0.03,0.53,0.03,3,2.16,False,79.0,56.9,57.6,True,hard,hard,0.04,0.54,56.8809390068,57.6146290302,True,1.51748514175,1.0,9.0,91,0,True,1.60943791243,1.09861228867
ti01,a,1,11,ori,0,4,False,False,ori,ori,green,right,True,hard,easy,0.54,0.75,0.04,0.25,0.75,0.25,3,2.16,False,88.0,63.38,64.08,True,easy,hard,0.04,0.54,63.366412878,64.0834248066,True,1.05017995834,1.0,9.0,63,0,True,1.79175946923,1.38629436112
ti01,a,1,12,hue,1,3,True,True,hue,hue,red,right,False,easy,hard,0.36,0.53,0.14,0.03,0.36,0.14,1,0.72,False,97.0,69.86,70.56,False,easy,hard,0.03,0.53,69.8349058628,70.5684728622,True,1.25043797493,0.0,4.0,75,0,True,0.0,1.60943791243
ti01,a,1,13,ori,1,5,True,True,ori,ori,red,left,True,hard,hard,0.46,0.47,0.04,0.03,0.47,0.03,0,0.0,False,104.0,74.9,75.6,False,hard,hard,0.04,0.46,74.8865158558,75.6034388542,False,1.31769704819,1.0,9.0,79,0,True,0.0,0.0
ti01,a,1,14,hue,0,6,True,True,hue,hue,red,right,False,hard,hard,0.46,0.53,0.04,0.03,0.46,0.04,7,5.04,False,110.0,79.22,79.92,False,hard,hard,0.03,0.53,79.2045679092,79.9211909771,False,1.25378704071,1.0,9.0,76,0,True,0.0,0.0
ti01,a,1,15,ori,1,5,True,True,ori,ori,red,right,False,easy,easy,0.36,0.75,0.14,0.25,0.75,0.25,0,0.0,False,123.0,88.58,89.28,True,easy,easy,0.14,0.36,88.5573029518,89.2908649445,True,1.8008749485,1.0,9.0,108,0,True,0.0,0.0
ti01,a,1,16,hue,0,6,True,True,hue,hue,green,right,True,hard,easy,0.54,0.75,0.04,0.25,0.54,0.04,1,0.72,True,129.0,92.9,93.6,True,hard,easy,0.25,0.75,92.875084877,93.6087579727,True,1.15077209473,1.0,9.0,69,0,True,0.0,0.0
ti01,a,1,17,hue,0,6,False,False,hue,hue,green,right,True,hard,hard,0.54,0.53,0.04,0.03,0.54,0.04,0,0.0,False,136.0,97.94,98.64,True,hard,hard,0.03,0.53,97.9266149998,98.6435799599,True,0.870937108994,1.0,9.0,53,0,True,0.69314718056,0.0
ti01,a,1,18,hue,0,6,False,False,hue,hue,red,right,False,easy,easy,0.36,0.75,0.14,0.25,0.36,0.14,2,1.44,False,142.0,102.26,102.96,False,easy,easy,0.25,0.75,102.244694948,102.961658955,True,0.934377908707,0.0,4.0,56,0,True,1.09861228867,0.0
ti01,a,1,19,hue,0,6,False,False,hue,hue,red,left,True,easy,hard,0.36,0.47,0.14,0.03,0.36,0.14,1,0.72,False,150.0,108.02,108.72,False,easy,hard,0.03,0.47,107.996295929,108.72989893,True,0.951130867004,0.0,4.0,57,0,True,1.38629436112,0.69314718056
ti01,a,1,20,hue,0,6,False,False,hue,hue,red,left,True,hard,hard,0.46,0.47,0.04,0.03,0.46,0.04,0,0.0,False,157.0,113.06,113.76,False,hard,hard,0.03,0.47,113.047895908,113.764853954,False,1.50143480301,1.0,9.0,90,0,True,1.60943791243,1.09861228867
ti01,a,1,21,ori,0,4,True,True,ori,ori,red,right,False,hard,hard,0.46,0.53,0.04,0.03,0.53,0.03,0,0.0,False,163.0,117.38,118.08,True,hard,hard,0.04,0.46,117.365963936,118.082954884,False,1.68596506119,0.0,4.0,102,0,True,0.0,1.38629436112
ti01,a,1,22,ori,1,5,False,True,ori,ori,green,left,False,hard,hard,0.54,0.47,0.04,0.03,0.47,0.03,3,2.16,False,169.0,121.7,122.4,False,hard,hard,0.04,0.54,121.683854818,122.40073204,False,1.51816010475,1.0,9.0,91,0,True,0.69314718056,0.0
ti01,a,1,23,hue,0,6,True,True,hue,hue,red,left,True,hard,easy,0.46,0.25,0.04,0.25,0.46,0.04,0,0.0,False,178.0,128.18,128.88,False,hard,easy,0.25,0.25,128.169327021,128.885910034,False,1.601364851,1.0,9.0,96,0,True,0.0,0.0
ti01,a,1,24,hue,1,3,False,True,hue,hue,red,right,False,easy,easy,0.36,0.75,0.14,0.25,0.36,0.14,6,4.32,False,184.0,132.5,133.2,False,easy,easy,0.25,0.75,132.487169027,133.204053879,True,0.918194055557,0.0,4.0,55,0,True,0.69314718056,0.0
ti01,a,1,25,ori,0,4,True,True,ori,ori,red,right,False,hard,easy,0.46,0.75,0.04,0.25,0.75,0.25,3,2.16,False,196.0,141.14,141.84,True,easy,hard,0.04,0.46,141.12312603,141.839871883,True,1.43732595444,1.0,9.0,87,0,True,0.0,0.0
ti01,a,1,26,ori,0,4,False,False,ori,ori,green,left,False,hard,hard,0.54,0.47,0.04,0.03,0.47,0.03,2,1.44,False,205.0,147.62,148.32,False,hard,hard,0.04,0.54,147.608268023,148.325263023,True,1.11930704117,0.0,4.0,68,0,True,0.69314718056,0.0
ti01,a,1,27,ori,0,4,False,False,ori,ori,red,right,False,easy,easy,0.36,0.75,0.14,0.25,0.75,0.25,0,0.0,False,213.0,153.38,154.08,True,easy,easy,0.14,0.36,153.360102892,154.093724966,True,1.1843791008,1.0,9.0,71,0,True,1.09861228867,0.0
ti01,a,1,28,ori,1,5,False,True,ori,ori,green,left,False,easy,hard,0.64,0.47,0.14,0.03,0.47,0.03,5,3.6,False,219.0,157.7,158.4,False,hard,easy,0.14,0.64,157.678043842,158.411653996,True,1.16770601273,0.0,4.0,70,0,True,1.38629436112,0.69314718056
ti01,a,1,29,ori,1,5,False,False,ori,ori,green,right,True,hard,easy,0.54,0.75,0.04,0.25,0.75,0.25,2,1.44,False,230.0,165.62,166.32,True,easy,hard,0.04,0.54,165.597123861,166.330760956,True,0.884280920029,1.0,9.0,53,0,True,1.60943791243,1.09861228867
ti01,a,1,30,hue,1,3,True,True,hue,hue,green,right,True,easy,easy,0.64,0.75,0.14,0.25,0.64,0.14,3,2.16,False,238.0,171.38,172.08,True,easy,easy,0.25,0.75,171.365540028,172.08256197,True,0.817379951477,1.0,9.0,49,0,True,0.0,1.38629436112
ti01,a,1,31,hue,1,3,False,False,hue,hue,green,right,True,hard,easy,0.54,0.75,0.04,0.25,0.54,0.04,4,2.88,False,247.0,177.86,178.56,True,hard,easy,0.25,0.75,177.850781918,178.567662001,True,1.40111494064,1.0,9.0,84,0,True,0.69314718056,0.0
ti01,a,1,32,hue,1,3,False,False,hue,hue,red,left,True,hard,hard,0.46,0.47,0.04,0.03,0.46,0.04,0,0.0,True,257.0,185.06,185.76,False,hard,hard,0.03,0.47,185.03625989,185.769783974,True,1.46821689606,0.0,4.0,88,0,True,1.09861228867,0.0
ti01,a,1,33,ori,0,4,True,True,ori,ori,red,left,True,easy,easy,0.36,0.25,0.14,0.25,0.25,0.25,1,0.72,False,263.0,189.38,190.08,False,easy,easy,0.14,0.36,189.354259014,190.087826967,True,1.01813077927,0.0,4.0,61,0,True,0.0,0.69314718056
ti01,a,1,34,ori,1,5,False,True,ori,ori,green,right,True,easy,hard,0.64,0.53,0.14,0.03,0.53,0.03,1,0.72,False,270.0,194.42,195.12,True,hard,easy,0.14,0.64,194.405757904,195.122606993,False,1.38457918167,0.0,4.0,83,0,True,0.69314718056,0.0
ti01,a,1,35,ori,0,4,False,True,ori,ori,red,right,False,easy,hard,0.36,0.53,0.14,0.03,0.53,0.03,0,0.0,False,277.0,199.46,200.16,True,hard,easy,0.14,0.36,199.440565825,200.174352884,True,1.06797099113,1.0,9.0,64,0,True,1.09861228867,0.0
ti01,a,1,36,hue,1,3,True,True,hue,hue,red,right,False,hard,easy,0.46,0.75,0.04,0.25,0.46,0.04,0,0.0,False,283.0,203.78,204.48,False,hard,easy,0.25,0.75,203.758615971,204.492136955,False,1.46764087677,1.0,9.0,88,0,True,0.0,0.69314718056
ti01,a,1,37,ori,0,4,True,True,ori,ori,red,left,True,easy,hard,0.36,0.47,0.14,0.03,0.47,0.03,0,0.0,False,289.0,208.1,208.8,False,hard,easy,0.14,0.36,208.076684952,208.810056925,True,1.33512496948,0.0,4.0,80,0,True,0.0,0.0
ti01,a,1,38,ori,0,4,False,False,ori,ori,green,left,False,easy,hard,0.64,0.47,0.14,0.03,0.47,0.03,0,0.0,False,295.0,212.42,213.12,False,hard,easy,0.14,0.64,212.394615889,213.128288031,True,1.50110197067,0.0,4.0,90,0,True,0.69314718056,0.0
ti01,a,1,39,hue,0,6,True,True,hue,hue,green,left,False,hard,hard,0.54,0.47,0.04,0.03,0.54,0.04,0,0.0,False,301.0,216.74,217.44,True,hard,hard,0.03,0.47,216.729141951,217.446080923,True,0.917716026306,1.0,9.0,55,0,True,0.0,0.0
ti01,a,1,40,hue,0,6,False,False,hue,hue,green,right,True,easy,easy,0.64,0.75,0.14,0.25,0.64,0.14,1,0.72,False,307.0,221.06,221.76,True,easy,easy,0.25,0.75,221.046957016,221.763867855,True,0.868165969849,1.0,9.0,52,0,True,0.69314718056,0.0
ti01,a,1,41,ori,1,5,True,True,ori,ori,red,left,True,easy,easy,0.36,0.25,0.14,0.25,0.25,0.25,2,1.44,False,314.0,226.1,226.8,False,easy,easy,0.14,0.36,226.081923008,226.815446854,True,1.13441896439,0.0,4.0,68,0,True,0.0,0.0
ti01,a,1,42,ori,0,4,False,True,ori,ori,green,left,False,easy,easy,0.64,0.25,0.14,0.25,0.25,0.25,0,0.0,False,322.0,231.86,232.56,False,easy,easy,0.14,0.64,231.83365202,232.567359924,True,1.03461813927,0.0,4.0,62,0,True,0.69314718056,0.0
ti01,a,1,43,hue,1,3,True,True,hue,hue,green,left,False,easy,easy,0.64,0.25,0.14,0.25,0.64,0.14,0,0.0,False,328.0,236.18,236.88,True,easy,easy,0.25,0.25,236.168524981,236.885146856,True,0.88586807251,1.0,9.0,54,0,True,0.0,0.0
ti01,a,1,44,ori,0,4,True,True,ori,ori,green,right,True,easy,easy,0.64,0.75,0.14,0.25,0.75,0.25,2,1.44,False,334.0,240.5,241.2,True,easy,easy,0.14,0.64,240.486286879,241.20331502,True,0.901203155518,1.0,9.0,54,0,True,0.0,0.0
ti01,a,1,45,hue,0,6,True,True,hue,hue,green,left,False,easy,hard,0.64,0.47,0.14,0.03,0.64,0.14,2,1.44,False,342.0,246.26,246.96,True,easy,hard,0.03,0.47,246.238041878,246.971535921,True,0.951039075851,1.0,9.0,57,0,True,0.0,0.0
ti01,a,1,46,ori,1,5,True,True,ori,ori,red,right,False,hard,easy,0.46,0.75,0.04,0.25,0.75,0.25,2,1.44,False,350.0,252.02,252.72,True,easy,hard,0.04,0.46,252.006382942,252.723317862,True,1.00121593475,1.0,9.0,60,0,True,0.0,0.0
ti01,a,1,47,hue,1,3,True,True,hue,hue,red,right,False,hard,hard,0.46,0.53,0.04,0.03,0.46,0.04,1,0.72,False,358.0,257.78,258.48,False,hard,hard,0.03,0.53,257.758143902,258.491823912,True,1.61812591553,0.0,4.0,97,0,True,0.0,0.0
ti01,a,1,48,ori,1,5,True,True,ori,ori,red,right,False,hard,hard,0.46,0.53,0.04,0.03,0.53,0.03,5,3.6,True,365.0,262.82,263.52,True,hard,hard,0.04,0.46,262.809592962,263.526562929,True,1.40117621422,1.0,9.0,84,0,True,0.0,0.0
ti01,a,1,49,ori,1,5,False,False,ori,ori,green,left,False,easy,easy,0.64,0.25,0.14,0.25,0.25,0.25,3,2.16,False,376.0,270.74,271.44,False,easy,easy,0.14,0.64,270.712097883,271.445580959,True,0.934551954269,0.0,4.0,56,0,True,0.69314718056,0.0
ti01,a,1,50,hue,1,3,True,True,hue,hue,green,left,False,hard,hard,0.54,0.47,0.04,0.03,0.54,0.04,6,4.32,False,385.0,277.22,277.92,True,hard,hard,0.03,0.47,277.197430849,277.930847883,True,1.21814203262,1.0,9.0,73,0,True,0.0,0.0
ti01,a,1,51,hue,0,6,False,True,hue,hue,red,right,False,hard,easy,0.46,0.75,0.04,0.25,0.46,0.04,0,0.0,False,397.0,285.86,286.56,False,hard,easy,0.25,0.75,285.849906921,286.56683588,False,1.40130281448,1.0,9.0,84,0,True,0.69314718056,0.0
ti01,a,1,52,hue,0,6,False,False,hue,hue,red,right,False,easy,hard,0.36,0.53,0.14,0.03,0.36,0.14,5,3.6,False,403.0,290.18,290.88,False,easy,hard,0.03,0.53,290.167989969,290.884856939,True,0.917371034622,0.0,4.0,55,0,True,1.09861228867,0.0
ti01,a,1,53,ori,1,5,True,True,ori,ori,green,right,True,hard,hard,0.54,0.53,0.04,0.03,0.53,0.03,1,0.72,False,414.0,298.1,298.8,True,hard,hard,0.04,0.54,298.08701086,298.80386281,False,1.53469920158,0.0,4.0,92,0,True,0.0,0.69314718056
ti01,a,1,54,hue,1,3,True,True,hue,hue,green,right,True,easy,hard,0.64,0.53,0.14,0.03,0.64,0.14,4,2.88,False,421.0,303.14,303.84,True,easy,hard,0.03,0.53,303.122009993,303.855177879,True,0.970112085342,1.0,9.0,59,0,True,0.0,0.0
ti01,a,1,55,ori,1,5,True,True,ori,ori,red,left,True,easy,hard,0.36,0.47,0.14,0.03,0.47,0.03,4,2.88,False,431.0,310.34,311.04,False,hard,easy,0.14,0.36,310.323983908,311.040778875,True,1.1846511364,0.0,4.0,71,0,True,0.0,0.0
ti01,a,1,56,hue,0,6,True,True,hue,hue,red,left,True,easy,easy,0.36,0.25,0.14,0.25,0.36,0.14,0,0.0,False,441.0,317.54,318.24,False,easy,easy,0.25,0.25,317.526134014,318.24328804,True,0.901308059692,0.0,4.0,54,0,True,0.0,0.0
ti01,a,1,57,hue,1,3,False,True,hue,hue,red,left,True,easy,easy,0.36,0.25,0.14,0.25,0.36,0.14,0,0.0,False,447.0,321.86,322.56,False,easy,easy,0.25,0.25,321.844064951,322.561020851,True,0.886541128159,0.0,4.0,54,0,True,0.69314718056,0.0
ti01,a,1,58,ori,0,4,True,True,ori,ori,green,left,False,hard,easy,0.54,0.25,0.04,0.25,0.25,0.25,2,1.44,False,453.0,326.18,326.88,False,easy,hard,0.04,0.54,326.162235022,326.878901005,True,1.284689188,0.0,4.0,77,0,True,0.0,0.0
ti01,a,1,59,ori,1,5,False,True,ori,ori,red,right,False,easy,hard,0.36,0.53,0.14,0.03,0.53,0.03,8,5.76,False,461.0,331.94,332.64,True,hard,easy,0.14,0.36,331.913651943,332.647513866,True,1.53542304039,1.0,9.0,92,0,True,0.69314718056,0.0
ti01,a,1,60,hue,0,6,True,True,hue,hue,green,left,False,easy,easy,0.64,0.25,0.14,0.25,0.64,0.14,2,1.44,False,475.0,342.02,342.72,True,easy,easy,0.25,0.25,342.000160933,342.733726978,True,1.88484811783,1.0,9.0,113,0,True,0.0,0.0
ti01,a,1,61,ori,1,5,True,True,ori,ori,green,right,True,easy,easy,0.64,0.75,0.14,0.25,0.75,0.25,1,0.72,False,483.0,347.78,348.48,True,easy,easy,0.14,0.64,347.768626928,348.485507011,True,1.95165920258,1.0,9.0,117,0,True,0.0,0.0
ti01,a,1,62,hue,1,3,True,True,hue,hue,red,left,True,easy,hard,0.36,0.47,0.14,0.03,0.36,0.14,1,0.72,False,490.0,352.82,353.52,False,easy,hard,0.03,0.47,352.803537846,353.520419836,True,1.31774806976,0.0,4.0,79,0,True,0.0,0.0
ti01,a,1,63,hue,0,6,False,True,hue,hue,green,left,False,hard,easy,0.54,0.25,0.04,0.25,0.54,0.04,0,0.0,False,497.0,357.86,358.56,True,hard,easy,0.25,0.25,357.838311911,358.571861029,True,1.70143198967,1.0,9.0,102,0,True,0.69314718056,0.0
ti01,a,2,0,hue,1,3,True,True,hue,hue,green,left,False,hard,easy,0.54,0.25,0.04,0.25,0.54,0.04,1,0.72,False,0.0,0.02,0.72,True,hard,easy,0.25,0.25,0.00496292114258,0.71701002121,True,1.51772499084,1.0,9.0,91,0,True,0.0,0.0
ti01,a,2,1,hue,0,6,False,True,hue,hue,green,left,False,easy,hard,0.64,0.47,0.14,0.03,0.64,0.14,0,0.0,False,7.0,5.06,5.76,True,easy,hard,0.03,0.47,5.03478097916,5.76856088638,True,0.866850852966,1.0,9.0,52,0,True,0.69314718056,0.0
ti01,a,2,2,ori,0,4,True,True,ori,ori,red,left,True,hard,hard,0.46,0.47,0.04,0.03,0.47,0.03,0,0.0,False,13.0,9.38,10.08,False,hard,hard,0.04,0.46,9.36972284317,10.0865008831,True,1.35006594658,0.0,4.0,81,0,True,0.0,0.0
ti01,a,2,3,ori,1,5,False,True,ori,ori,red,right,False,easy,easy,0.36,0.75,0.14,0.25,0.75,0.25,1,0.72,False,19.0,13.7,14.4,True,easy,easy,0.14,0.36,13.687543869,14.4046390057,True,0.950122117996,1.0,9.0,57,0,True,0.69314718056,0.0
ti01,a,2,4,hue,0,6,True,True,hue,hue,green,right,True,easy,easy,0.64,0.75,0.14,0.25,0.64,0.14,2,1.44,False,26.0,18.74,19.44,True,easy,easy,0.25,0.75,18.7224559784,19.4393088818,True,1.13604593277,1.0,9.0,69,0,True,0.0,0.0
ti01,a,2,5,hue,1,3,False,True,hue,hue,red,left,True,hard,easy,0.46,0.25,0.04,0.25,0.46,0.04,4,2.88,False,34.0,24.5,25.2,False,hard,easy,0.25,0.25,24.4908640385,25.2075178623,False,1.2837100029,1.0,9.0,77,0,True,0.69314718056,0.0
ti01,a,2,6,hue,0,6,False,True,hue,hue,red,left,True,hard,easy,0.46,0.25,0.04,0.25,0.46,0.04,0,0.0,False,44.0,31.7,32.4,False,hard,easy,0.25,0.25,31.6763749123,32.4100840092,False,1.78497409821,1.0,9.0,108,0,True,1.09861228867,0.0
ti01,a,2,7,hue,0,6,False,False,hue,hue,red,right,False,hard,hard,0.46,0.53,0.04,0.03,0.46,0.04,1,0.72,False,50.0,36.02,36.72,False,hard,hard,0.03,0.53,35.9941999912,36.7278249264,True,0.966210126877,0.0,4.0,58,0,True,1.38629436112,0.69314718056
ti01,a,2,8,ori,0,4,True,True,ori,ori,red,left,True,easy,hard,0.36,0.47,0.14,0.03,0.47,0.03,7,5.04,False,57.0,41.06,41.76,False,hard,easy,0.14,0.36,41.0456228256,41.7627420425,True,1.95118999481,0.0,4.0,117,0,True,0.0,1.09861228867
ti01,a,2,9,hue,1,3,True,True,hue,hue,red,right,False,easy,hard,0.36,0.53,0.14,0.03,0.36,0.14,1,0.72,False,70.0,50.42,51.12,False,easy,hard,0.03,0.53,50.3987979889,51.1320588589,True,0.866510152817,0.0,4.0,52,0,True,0.0,0.0
ti01,a,2,10,ori,1,5,True,True,ori,ori,green,left,False,easy,easy,0.64,0.25,0.14,0.25,0.25,0.25,0,0.0,False,77.0,55.46,56.16,False,easy,easy,0.14,0.64,55.4501509666,56.1669869423,True,1.35132217407,0.0,4.0,81,0,True,0.0,0.0
ti01,a,2,11,hue,0,6,True,True,hue,hue,red,right,False,hard,easy,0.46,0.75,0.04,0.25,0.46,0.04,0,0.0,False,83.0,59.78,60.48,False,hard,easy,0.25,0.75,59.7680609226,60.485118866,False,1.9182009697,1.0,9.0,115,0,True,0.0,0.0
ti01,a,2,12,ori,1,5,True,True,ori,ori,red,right,False,hard,easy,0.46,0.75,0.04,0.25,0.75,0.25,0,0.0,False,89.0,64.1,64.8,True,easy,hard,0.04,0.46,64.1027429104,64.8030209541,True,1.00098896027,1.0,9.0,60,0,True,0.0,0.0
ti01,a,2,13,ori,1,5,False,False,ori,ori,red,left,True,easy,hard,0.36,0.47,0.14,0.03,0.47,0.03,1,0.72,False,95.0,68.42,69.12,False,hard,easy,0.14,0.36,68.4041349888,69.120775938,True,1.88462400436,0.0,4.0,113,0,True,0.69314718056,0.0
ti01,a,2,14,hue,1,3,True,True,hue,hue,green,right,True,hard,easy,0.54,0.75,0.04,0.25,0.54,0.04,1,0.72,False,102.0,73.46,74.16,True,hard,easy,0.25,0.75,73.4389748573,74.172344923,True,0.767364025116,1.0,9.0,46,0,True,0.0,0.0
ti01,a,2,15,hue,1,3,False,False,hue,hue,green,right,True,easy,easy,0.64,0.75,0.14,0.25,0.64,0.14,0,0.0,False,109.0,78.5,79.2,True,easy,easy,0.25,0.75,78.4739069939,79.2072708607,True,0.767683029175,1.0,9.0,46,0,True,0.69314718056,0.0
ti01,a,2,16,hue,0,6,False,True,hue,hue,red,right,False,easy,hard,0.36,0.53,0.14,0.03,0.36,0.14,1,0.72,True,115.0,82.82,83.52,False,easy,hard,0.03,0.53,82.8085119724,83.5253248215,True,1.56801509857,0.0,4.0,94,0,True,1.09861228867,0.0
ti01,a,2,17,hue,0,6,False,False,hue,hue,red,left,True,easy,easy,0.36,0.25,0.14,0.25,0.36,0.14,2,1.44,False,122.0,87.86,88.56,False,easy,easy,0.25,0.25,87.8431110382,88.5601978302,True,1.36763906479,0.0,4.0,82,0,True,1.38629436112,0.69314718056
ti01,a,2,18,ori,0,4,True,True,ori,ori,red,right,False,hard,hard,0.46,0.53,0.04,0.03,0.53,0.03,2,1.44,False,130.0,93.62,94.32,True,hard,hard,0.04,0.46,93.5948889256,94.3285009861,True,1.88467288017,1.0,9.0,113,0,True,0.0,1.09861228867
ti01,a,2,19,hue,1,3,True,True,hue,hue,red,right,False,easy,easy,0.36,0.75,0.14,0.25,0.36,0.14,2,1.44,False,138.0,99.38,100.08,False,easy,easy,0.25,0.75,99.3635158539,100.080129862,True,0.784533023834,0.0,4.0,47,0,True,0.0,0.0
ti01,a,2,20,hue,1,3,False,False,hue,hue,red,left,True,hard,hard,0.46,0.47,0.04,0.03,0.46,0.04,0,0.0,False,146.0,105.14,105.84,False,hard,hard,0.03,0.47,105.131669044,105.848793983,True,1.45156788826,0.0,4.0,87,0,True,0.69314718056,0.0
ti01,a,2,21,ori,1,5,True,True,ori,ori,green,right,True,easy,hard,0.64,0.53,0.14,0.03,0.53,0.03,0,0.0,False,152.0,109.46,110.16,True,hard,easy,0.14,0.64,109.433200836,110.166545868,False,1.25153684616,0.0,4.0,75,0,True,0.0,0.0
ti01,a,2,22,ori,1,5,False,False,ori,ori,red,left,True,hard,hard,0.46,0.47,0.04,0.03,0.47,0.03,3,2.16,False,158.0,113.78,114.48,False,hard,hard,0.04,0.46,113.767678022,114.484707832,True,1.70146822929,0.0,4.0,102,0,True,0.69314718056,0.0
ti01,a,2,23,hue,1,3,True,True,hue,hue,red,left,True,easy,hard,0.36,0.47,0.14,0.03,0.36,0.14,0,0.0,False,167.0,120.26,120.96,False,easy,hard,0.03,0.47,120.236127853,120.96981883,True,1.06766581535,0.0,4.0,64,0,True,0.0,0.0
ti01,a,2,24,ori,1,5,True,True,ori,ori,green,right,True,hard,hard,0.54,0.53,0.04,0.03,0.53,0.03,4,2.88,False,173.0,124.58,125.28,True,hard,hard,0.04,0.54,124.554466009,125.287789822,True,1.91831707954,1.0,9.0,115,0,True,0.0,0.0
ti01,a,2,25,ori,1,5,False,False,ori,ori,green,left,False,hard,easy,0.54,0.25,0.04,0.25,0.25,0.25,0,0.0,False,183.0,131.78,132.48,False,easy,hard,0.04,0.54,131.773288012,132.490146875,True,0.834296941757,0.0,4.0,50,0,True,0.69314718056,0.0
ti01,a,2,26,hue,1,3,True,True,hue,hue,green,right,True,hard,hard,0.54,0.53,0.04,0.03,0.54,0.04,0,0.0,False,189.0,136.1,136.8,True,hard,hard,0.03,0.53,136.074198961,136.808002949,True,0.834104061127,1.0,9.0,50,0,True,0.0,0.0
ti01,a,2,27,hue,0,6,False,True,hue,hue,red,left,True,easy,hard,0.36,0.47,0.14,0.03,0.36,0.14,5,3.6,False,195.0,140.42,141.12,False,easy,hard,0.03,0.47,140.409121037,141.125905991,True,1.71798491478,0.0,4.0,103,0,True,0.69314718056,0.0
ti01,a,2,28,ori,0,4,True,True,ori,ori,green,left,False,easy,easy,0.64,0.25,0.14,0.25,0.25,0.25,1,0.72,False,206.0,148.34,149.04,False,easy,easy,0.14,0.64,148.32792902,149.044955969,True,0.801009893417,0.0,4.0,48,0,True,0.0,0.0
ti01,a,2,29,ori,1,5,False,True,ori,ori,green,left,False,easy,hard,0.64,0.47,0.14,0.03,0.47,0.03,0,0.0,False,213.0,153.38,154.08,False,hard,easy,0.14,0.64,153.363047838,154.079651833,False,1.43526005745,1.0,9.0,86,0,True,0.69314718056,0.0
ti01,a,2,30,ori,1,5,False,False,ori,ori,red,right,False,easy,hard,0.36,0.53,0.14,0.03,0.53,0.03,0,0.0,False,219.0,157.7,158.4,True,hard,easy,0.14,0.36,157.681035042,158.414534807,False,1.66801691055,0.0,4.0,100,0,True,1.09861228867,0.0
ti01,a,2,31,ori,0,4,False,True,ori,ori,red,left,True,easy,easy,0.36,0.25,0.14,0.25,0.25,0.25,5,3.6,False,225.0,162.02,162.72,False,easy,easy,0.14,0.36,161.998883009,162.732481956,True,1.10130500793,0.0,4.0,66,0,True,1.38629436112,0.69314718056
ti01,a,2,32,ori,0,4,False,False,ori,ori,red,right,False,hard,easy,0.46,0.75,0.04,0.25,0.75,0.25,1,0.72,True,236.0,169.94,170.64,True,easy,hard,0.04,0.46,169.917953014,170.651566982,True,0.650879859924,1.0,9.0,39,0,True,1.60943791243,1.09861228867
ti01,a,2,33,ori,1,5,False,True,ori,ori,green,right,True,hard,easy,0.54,0.75,0.04,0.25,0.75,0.25,0,0.0,False,243.0,174.98,175.68,True,easy,hard,0.04,0.54,174.96943593,175.68638587,True,1.18460893631,1.0,9.0,71,0,True,1.79175946923,1.38629436112
ti01,a,2,34,hue,1,3,True,True,hue,hue,red,right,False,hard,easy,0.46,0.75,0.04,0.25,0.46,0.04,3,2.16,False,249.0,179.3,180.0,False,hard,easy,0.25,0.75,179.287410021,180.004247904,False,1.3848760128,1.0,9.0,83,0,True,0.0,1.60943791243
ti01,a,2,35,ori,0,4,True,True,ori,ori,green,left,False,hard,hard,0.54,0.47,0.04,0.03,0.47,0.03,3,2.16,False,258.0,185.78,186.48,False,hard,hard,0.04,0.54,185.756148815,186.489593029,True,1.20125198364,0.0,4.0,72,0,True,0.0,0.0
ti01,a,2,36,ori,0,4,False,False,ori,ori,red,right,False,easy,hard,0.36,0.53,0.14,0.03,0.53,0.03,8,5.76,False,267.0,192.26,192.96,True,hard,easy,0.14,0.36,192.241390944,192.974973917,True,1.1014111042,1.0,9.0,66,0,True,0.69314718056,0.0
ti01,a,2,37,hue,1,3,True,True,hue,hue,red,right,False,hard,hard,0.46,0.53,0.04,0.03,0.46,0.04,1,0.72,False,281.0,202.34,203.04,False,hard,hard,0.03,0.53,202.327466965,203.044611931,True,1.71816897392,0.0,4.0,103,0,True,0.0,0.0
ti01,a,2,38,hue,0,6,False,True,hue,hue,green,right,True,hard,easy,0.54,0.75,0.04,0.25,0.54,0.04,5,3.6,False,288.0,207.38,208.08,True,hard,easy,0.25,0.75,207.362622976,208.079361916,True,1.41835999489,1.0,9.0,85,0,True,0.69314718056,0.0
ti01,a,2,39,hue,0,6,False,False,hue,hue,red,right,False,easy,easy,0.36,0.75,0.14,0.25,0.36,0.14,1,0.72,False,299.0,215.3,216.0,False,easy,easy,0.25,0.75,215.281461,216.015157938,True,0.785945892334,0.0,4.0,48,0,True,1.09861228867,0.0
ti01,a,2,40,ori,1,5,True,True,ori,ori,green,right,True,easy,easy,0.64,0.75,0.14,0.25,0.75,0.25,1,0.72,False,306.0,220.34,221.04,True,easy,easy,0.14,0.64,220.316361904,221.050069809,True,1.16809511185,1.0,9.0,70,0,True,0.0,0.69314718056
ti01,a,2,41,hue,1,3,True,True,hue,hue,red,left,True,easy,easy,0.36,0.25,0.14,0.25,0.36,0.14,4,2.88,False,313.0,225.38,226.08,False,easy,easy,0.25,0.25,225.368088961,226.084869862,True,0.767395973206,0.0,4.0,46,0,True,0.0,0.0
ti01,a,2,42,hue,0,6,False,True,hue,hue,green,left,False,hard,easy,0.54,0.25,0.04,0.25,0.54,0.04,3,2.16,False,323.0,232.58,233.28,True,hard,easy,0.25,0.25,232.570267916,233.287010908,True,1.60169196129,1.0,9.0,96,0,True,0.69314718056,0.0
ti01,a,2,43,hue,1,3,False,True,hue,hue,green,left,False,easy,hard,0.64,0.47,0.14,0.03,0.64,0.14,6,4.32,False,332.0,239.06,239.76,True,easy,hard,0.03,0.47,239.038779974,239.772408009,True,1.03430604935,1.0,9.0,62,0,True,1.09861228867,0.0
ti01,a,2,44,ori,0,4,True,True,ori,ori,red,right,False,easy,easy,0.36,0.75,0.14,0.25,0.75,0.25,9,6.48,False,344.0,247.7,248.4,True,easy,easy,0.14,0.36,247.67491889,248.408427954,True,0.951029062271,1.0,9.0,57,0,True,0.0,0.69314718056
ti01,a,2,45,ori,1,5,False,True,ori,ori,green,left,False,hard,hard,0.54,0.47,0.04,0.03,0.47,0.03,3,2.16,False,359.0,258.5,259.2,False,hard,hard,0.04,0.54,258.478081942,259.211516857,True,1.30144691467,0.0,4.0,78,0,True,0.69314718056,0.0
ti01,a,2,46,hue,0,6,True,True,hue,hue,green,right,True,hard,hard,0.54,0.53,0.04,0.03,0.54,0.04,0,0.0,False,368.0,264.98,265.68,True,hard,hard,0.03,0.53,264.963107824,265.68028903,True,0.950971841812,1.0,9.0,57,0,True,0.0,0.0
ti01,a,2,47,hue,0,6,False,False,hue,hue,green,left,False,easy,easy,0.64,0.25,0.14,0.25,0.64,0.14,2,1.44,False,374.0,269.3,270.0,True,easy,easy,0.25,0.25,269.281041861,270.01472187,True,1.35125398636,1.0,9.0,81,0,True,0.69314718056,0.0
ti01,a,2,48,ori,1,5,True,True,ori,ori,red,right,False,hard,hard,0.46,0.53,0.04,0.03,0.53,0.03,1,0.72,True,382.0,275.06,275.76,True,hard,hard,0.04,0.46,275.049605846,275.766515017,True,1.52183794975,1.0,9.0,92,0,True,0.0,0.0
ti01,a,2,49,ori,0,4,False,True,ori,ori,green,right,True,hard,hard,0.54,0.53,0.04,0.03,0.53,0.03,2,1.44,False,389.0,280.1,280.8,True,hard,hard,0.04,0.54,280.08453083,280.801461935,True,0.784580945969,1.0,9.0,47,0,True,0.69314718056,0.0
ti01,a,2,50,ori,0,4,False,False,ori,ori,green,right,True,hard,easy,0.54,0.75,0.04,0.25,0.75,0.25,1,0.72,False,397.0,285.86,286.56,True,easy,hard,0.04,0.54,285.836287022,286.569928885,True,0.717685937881,1.0,9.0,43,0,True,1.09861228867,0.0
ti01,a,2,51,hue,1,3,True,True,hue,hue,green,left,False,easy,easy,0.64,0.25,0.14,0.25,0.64,0.14,3,2.16,False,404.0,290.9,291.6,True,easy,easy,0.25,0.25,290.887699842,291.60479188,True,0.719474077225,1.0,9.0,44,0,True,0.0,0.69314718056
ti01,a,2,52,ori,1,5,True,True,ori,ori,red,left,True,easy,easy,0.36,0.25,0.14,0.25,0.25,0.25,0,0.0,False,413.0,297.38,298.08,False,easy,easy,0.14,0.36,297.356118917,298.089963913,True,1.03454995155,0.0,4.0,62,0,True,0.0,0.0
ti01,a,2,53,hue,0,6,True,True,hue,hue,red,left,True,hard,hard,0.46,0.47,0.04,0.03,0.46,0.04,2,1.44,False,419.0,301.7,302.4,False,hard,hard,0.03,0.47,301.674378872,302.407968044,True,1.33453607559,0.0,4.0,80,0,True,0.0,0.0
ti01,a,2,54,ori,0,4,True,True,ori,ori,green,left,False,easy,hard,0.64,0.47,0.14,0.03,0.47,0.03,0,0.0,False,427.0,307.46,308.16,False,hard,easy,0.14,0.64,307.442883015,308.159746885,True,1.03414583206,0.0,4.0,62,0,True,0.0,0.0
ti01,a,2,55,ori,1,5,False,True,ori,ori,red,left,True,hard,easy,0.46,0.25,0.04,0.25,0.25,0.25,6,4.32,False,433.0,311.78,312.48,False,easy,hard,0.04,0.46,311.760821819,312.494325876,True,0.634082078934,0.0,4.0,38,0,True,0.69314718056,0.0
ti01,a,2,56,hue,1,3,True,True,hue,hue,green,left,False,hard,hard,0.54,0.47,0.04,0.03,0.54,0.04,0,0.0,False,445.0,320.42,321.12,True,hard,hard,0.03,0.47,320.396718979,321.130324841,True,0.733737945557,1.0,9.0,44,0,True,0.0,0.0
ti01,a,2,57,ori,0,4,True,True,ori,ori,green,left,False,hard,easy,0.54,0.25,0.04,0.25,0.25,0.25,2,1.44,False,451.0,324.74,325.44,False,easy,hard,0.04,0.54,324.714637995,325.448254824,True,0.717394113541,0.0,4.0,43,0,True,0.0,0.0
ti01,a,2,58,ori,0,4,False,False,ori,ori,red,left,True,hard,easy,0.46,0.25,0.04,0.25,0.25,0.25,2,1.44,False,459.0,330.5,331.2,False,easy,hard,0.04,0.46,330.483192921,331.199731827,True,0.634619951248,0.0,4.0,38,0,True,0.69314718056,0.0
ti01,a,2,59,hue,0,6,True,True,hue,hue,green,right,True,easy,hard,0.64,0.53,0.14,0.03,0.64,0.14,0,0.0,False,467.0,336.26,336.96,True,easy,hard,0.03,0.53,336.234622002,336.968261003,True,0.650918960571,1.0,9.0,39,0,True,0.0,0.0
ti01,a,2,60,ori,0,4,True,True,ori,ori,green,right,True,easy,hard,0.64,0.53,0.14,0.03,0.53,0.03,0,0.0,False,473.0,340.58,341.28,True,hard,easy,0.14,0.64,340.56960988,341.286403894,False,0.86754488945,0.0,4.0,52,0,True,0.0,0.0
ti01,a,2,61,hue,1,3,True,True,hue,hue,green,right,True,easy,hard,0.64,0.53,0.14,0.03,0.64,0.14,4,2.88,False,479.0,344.9,345.6,True,easy,hard,0.03,0.53,344.887444973,345.604182959,True,0.651086091995,1.0,9.0,39,0,True,0.0,0.0
ti01,a,2,62,ori,0,4,True,True,ori,ori,green,right,True,easy,easy,0.64,0.75,0.14,0.25,0.75,0.25,2,1.44,False,489.0,352.1,352.8,True,easy,easy,0.14,0.64,352.08946991,352.806461811,True,0.651390075684,1.0,9.0,39,0,True,0.0,0.0
ti01,a,2,63,hue,0,6,True,True,hue,hue,green,left,False,hard,hard,0.54,0.47,0.04,0.03,0.54,0.04,0,0.0,False,497.0,357.86,358.56,True,hard,hard,0.03,0.47,357.84113884,358.57501483,True,0.91806602478,1.0,9.0,55,0,True,0.0,0.0
ti01,a,3,0,hue,1,3,True,True,hue,hue,green,right,True,easy,easy,0.64,0.75,0.14,0.25,0.64,0.14,0,0.0,False,0.0,0.02,0.72,True,easy,easy,0.25,0.75,0.0049889087677,0.714671850204,True,0.916601896286,1.0,9.0,55,0,True,0.0,0.0
ti01,a,3,1,ori,0,4,True,True,ori,ori,green,left,False,hard,easy,0.54,0.25,0.04,0.25,0.25,0.25,2,1.44,False,6.0,4.34,5.04,False,easy,hard,0.04,0.54,4.31576395035,5.04918885231,True,0.866950035095,0.0,4.0,52,0,True,0.0,0.0
ti01,a,3,2,hue,1,3,True,True,hue,hue,red,left,True,easy,hard,0.36,0.47,0.14,0.03,0.36,0.14,1,0.72,False,14.0,10.1,10.8,False,easy,hard,0.03,0.47,10.0840640068,10.8009660244,True,0.733737945557,0.0,4.0,44,0,True,0.0,0.0
ti01,a,3,3,ori,0,4,True,True,ori,ori,green,left,False,easy,hard,0.64,0.47,0.14,0.03,0.47,0.03,0,0.0,False,21.0,15.14,15.84,False,hard,easy,0.14,0.64,15.1187438965,15.8524518013,True,1.01728105545,0.0,4.0,61,0,True,0.0,0.0
ti01,a,3,4,ori,1,5,False,True,ori,ori,red,right,False,hard,easy,0.46,0.75,0.04,0.25,0.75,0.25,3,2.16,False,27.0,19.46,20.16,True,easy,hard,0.04,0.46,19.4368798733,20.1702198982,True,0.984649896622,1.0,9.0,59,0,True,0.69314718056,0.0
ti01,a,3,5,hue,0,6,True,True,hue,hue,green,left,False,easy,easy,0.64,0.25,0.14,0.25,0.64,0.14,1,0.72,False,36.0,25.94,26.64,True,easy,easy,0.25,0.25,25.9220478535,26.6391189098,True,1.18344807625,1.0,9.0,71,0,True,0.0,0.0
ti01,a,3,6,hue,0,6,False,False,hue,hue,green,right,True,hard,hard,0.54,0.53,0.04,0.03,0.54,0.04,1,0.72,False,43.0,30.98,31.68,True,hard,hard,0.03,0.53,30.9569318295,31.6906797886,True,0.717605113983,1.0,9.0,43,0,True,0.69314718056,0.0
ti01,a,3,7,ori,1,5,True,True,ori,ori,green,right,True,hard,easy,0.54,0.75,0.04,0.25,0.75,0.25,0,0.0,False,50.0,36.02,36.72,True,easy,hard,0.04,0.54,35.9918339252,36.7253308296,True,0.983392953873,1.0,9.0,59,0,True,0.0,0.0
ti01,a,3,8,hue,0,6,True,True,hue,hue,red,left,True,hard,easy,0.46,0.25,0.04,0.25,0.46,0.04,2,1.44,False,56.0,40.34,41.04,False,hard,easy,0.25,0.25,40.32644701,41.0432598591,False,1.46686005592,1.0,9.0,88,0,True,0.0,0.0
ti01,a,3,9,hue,0,6,False,False,hue,hue,red,left,True,easy,easy,0.36,0.25,0.14,0.25,0.36,0.14,0,0.0,False,64.0,46.1,46.8,False,easy,easy,0.25,0.25,46.0780448914,46.8117887974,True,1.5174601078,0.0,4.0,91,0,True,0.69314718056,0.0
ti01,a,3,10,hue,0,6,False,False,hue,hue,green,right,True,hard,easy,0.54,0.75,0.04,0.25,0.54,0.04,0,0.0,False,70.0,50.42,51.12,True,hard,easy,0.25,0.75,50.3962388039,51.1296048164,True,0.950332164764,1.0,9.0,57,0,True,1.09861228867,0.0
ti01,a,3,11,ori,0,4,True,True,ori,ori,green,left,False,hard,hard,0.54,0.47,0.04,0.03,0.47,0.03,5,3.6,False,76.0,54.74,55.44,False,hard,hard,0.04,0.54,54.7140939236,55.4477279186,False,1.45253896713,1.0,9.0,88,0,True,0.0,0.69314718056
ti01,a,3,12,ori,1,5,False,True,ori,ori,green,left,False,easy,hard,0.64,0.47,0.14,0.03,0.47,0.03,5,3.6,False,87.0,62.66,63.36,False,hard,easy,0.14,0.64,62.6332378387,63.3668220043,False,1.56671500206,1.0,9.0,94,0,True,0.69314718056,0.0
ti01,a,3,13,ori,1,5,False,False,ori,ori,green,left,False,hard,easy,0.54,0.25,0.04,0.25,0.25,0.25,2,1.44,False,98.0,70.58,71.28,False,easy,hard,0.04,0.54,70.5523319244,71.2858889103,True,1.68417096138,0.0,4.0,101,0,True,1.09861228867,0.0
ti01,a,3,14,ori,0,4,False,True,ori,ori,green,right,True,hard,easy,0.54,0.75,0.04,0.25,0.75,0.25,1,0.72,False,106.0,76.34,77.04,True,easy,hard,0.04,0.54,76.320691824,77.0540568829,False,1.36957216263,0.0,4.0,83,0,True,1.38629436112,0.69314718056
ti01,a,3,15,ori,0,4,False,False,ori,ori,red,left,True,easy,hard,0.36,0.47,0.14,0.03,0.47,0.03,1,0.72,False,113.0,81.38,82.08,False,hard,easy,0.14,0.36,81.3555560112,82.0887589455,False,1.65162396431,1.0,9.0,99,0,True,1.60943791243,1.09861228867
ti01,a,3,16,hue,0,6,True,True,hue,hue,red,right,False,hard,easy,0.46,0.75,0.04,0.25,0.46,0.04,0,0.0,True,120.0,86.42,87.12,False,hard,easy,0.25,0.75,86.4069998264,87.1237449646,True,1.73455190659,0.0,4.0,104,0,True,0.0,1.38629436112
ti01,a,3,17,ori,0,4,True,True,ori,ori,green,right,True,hard,hard,0.54,0.53,0.04,0.03,0.53,0.03,0,0.0,False,126.0,90.74,91.44,True,hard,hard,0.04,0.54,90.7250218391,91.4418709278,True,1.00097990036,1.0,9.0,60,0,True,0.0,0.0
ti01,a,3,18,hue,1,3,True,True,hue,hue,green,right,True,easy,hard,0.64,0.53,0.14,0.03,0.64,0.14,2,1.44,False,132.0,95.06,95.76,True,easy,hard,0.03,0.53,95.0427689552,95.7596728802,True,0.884558916092,1.0,9.0,53,0,True,0.0,0.0
ti01,a,3,19,hue,1,3,False,False,hue,hue,red,right,False,hard,hard,0.46,0.53,0.04,0.03,0.46,0.04,0,0.0,False,140.0,100.82,101.52,False,hard,hard,0.03,0.53,100.794469833,101.528245926,False,0.851192951202,1.0,9.0,51,0,True,0.69314718056,0.0
ti01,a,3,20,hue,1,3,False,False,hue,hue,red,left,True,hard,hard,0.46,0.47,0.04,0.03,0.46,0.04,0,0.0,False,146.0,105.14,105.84,False,hard,hard,0.03,0.47,105.129092932,105.845932007,False,1.63481807709,1.0,9.0,98,0,True,1.09861228867,0.0
ti01,a,3,21,hue,1,3,False,False,hue,hue,green,right,True,hard,easy,0.54,0.75,0.04,0.25,0.54,0.04,1,0.72,False,152.0,109.46,110.16,True,hard,easy,0.25,0.75,109.447326899,110.163808823,True,0.951427936554,1.0,9.0,57,0,True,1.38629436112,0.69314718056
ti01,a,3,22,ori,1,5,True,True,ori,ori,red,left,True,easy,easy,0.36,0.25,0.14,0.25,0.25,0.25,2,1.44,False,159.0,114.5,115.2,False,easy,easy,0.14,0.36,114.482062817,115.198783875,True,1.00380587578,0.0,4.0,61,0,True,0.0,1.09861228867
ti01,a,3,23,hue,1,3,True,True,hue,hue,green,right,True,hard,hard,0.54,0.53,0.04,0.03,0.54,0.04,0,0.0,False,167.0,120.26,120.96,True,hard,hard,0.03,0.53,120.25056982,120.967150927,True,1.40139293671,1.0,9.0,84,0,True,0.0,0.0
ti01,a,3,24,hue,1,3,False,False,hue,hue,green,left,False,hard,easy,0.54,0.25,0.04,0.25,0.54,0.04,1,0.72,False,173.0,124.58,125.28,True,hard,easy,0.25,0.25,124.568413973,125.285352945,True,1.21782493591,1.0,9.0,73,0,True,0.69314718056,0.0
ti01,a,3,25,ori,1,5,True,True,ori,ori,red,left,True,hard,easy,0.46,0.25,0.04,0.25,0.25,0.25,4,2.88,False,180.0,129.62,130.32,False,easy,hard,0.04,0.46,129.603261948,130.320051908,True,0.951095104218,0.0,4.0,57,0,True,0.0,0.0
ti01,a,3,26,hue,0,6,True,True,hue,hue,green,left,False,easy,hard,0.64,0.47,0.14,0.03,0.64,0.14,2,1.44,False,190.0,136.82,137.52,True,easy,hard,0.03,0.47,136.805318832,137.522310972,True,1.13477611542,1.0,9.0,68,0,True,0.0,0.0
ti01,a,3,27,ori,1,5,True,True,ori,ori,green,left,False,easy,easy,0.64,0.25,0.14,0.25,0.25,0.25,2,1.44,False,198.0,142.58,143.28,False,easy,easy,0.14,0.64,142.557082891,143.290831804,True,1.03455400467,0.0,4.0,62,0,True,0.0,0.0
ti01,a,3,28,ori,0,4,False,True,ori,ori,red,right,False,hard,easy,0.46,0.75,0.04,0.25,0.75,0.25,1,0.72,False,206.0,148.34,149.04,True,easy,hard,0.04,0.46,148.325668812,149.042261839,True,0.801131010056,1.0,9.0,48,0,True,0.69314718056,0.0
ti01,a,3,29,ori,0,4,False,False,ori,ori,red,right,False,hard,hard,0.46,0.53,0.04,0.03,0.53,0.03,4,2.88,False,213.0,153.38,154.08,True,hard,hard,0.04,0.46,153.360346794,154.093799829,False,1.41806101799,0.0,4.0,85,0,True,1.09861228867,0.0
ti01,a,3,30,hue,1,3,True,True,hue,hue,red,right,False,hard,easy,0.46,0.75,0.04,0.25,0.46,0.04,1,0.72,False,223.0,160.58,161.28,False,hard,easy,0.25,0.75,160.562659025,161.279444933,True,1.25142788887,0.0,4.0,75,0,True,0.0,0.69314718056
ti01,a,3,31,hue,0,6,False,True,hue,hue,green,right,True,easy,easy,0.64,0.75,0.14,0.25,0.64,0.14,3,2.16,False,230.0,165.62,166.32,True,easy,easy,0.25,0.75,165.597332001,166.330979824,True,1.30151510239,1.0,9.0,78,0,True,0.69314718056,0.0
ti01,a,3,32,hue,1,3,False,True,hue,hue,red,right,False,easy,hard,0.36,0.53,0.14,0.03,0.36,0.14,8,5.76,True,239.0,172.1,172.8,False,easy,hard,0.03,0.53,172.082443953,172.79955101,True,0.934559822083,0.0,4.0,56,0,True,1.09861228867,0.0
ti01,a,3,33,ori,1,5,True,True,ori,ori,red,right,False,easy,hard,0.36,0.53,0.14,0.03,0.53,0.03,3,2.16,False,253.0,182.18,182.88,True,hard,easy,0.14,0.36,182.168852806,182.885734797,False,1.66784000397,0.0,4.0,100,0,True,0.0,0.69314718056
ti01,a,3,34,ori,0,4,False,True,ori,ori,red,left,True,easy,easy,0.36,0.25,0.14,0.25,0.25,0.25,0,0.0,False,262.0,188.66,189.36,False,easy,easy,0.14,0.36,188.6376369,189.371192932,True,1.06921815872,0.0,4.0,65,0,True,0.69314718056,0.0
ti01,a,3,35,hue,1,3,True,True,hue,hue,red,left,True,hard,easy,0.46,0.25,0.04,0.25,0.46,0.04,1,0.72,False,268.0,192.98,193.68,False,hard,easy,0.25,0.25,192.955552816,193.689181805,False,1.7180480957,1.0,9.0,103,0,True,0.0,0.0
ti01,a,3,36,hue,0,6,False,True,hue,hue,red,right,False,easy,hard,0.36,0.53,0.14,0.03,0.36,0.14,3,2.16,False,275.0,198.02,198.72,False,easy,hard,0.03,0.53,198.006974936,198.723824024,True,1.08474898338,0.0,4.0,65,0,True,0.69314718056,0.0
ti01,a,3,37,ori,0,4,True,True,ori,ori,red,right,False,easy,easy,0.36,0.75,0.14,0.25,0.75,0.25,0,0.0,False,284.0,204.5,205.2,True,easy,easy,0.14,0.36,204.475673914,205.209095955,True,0.867565870285,1.0,9.0,52,0,True,0.0,0.0
ti01,a,3,38,ori,0,4,False,False,ori,ori,green,right,True,easy,easy,0.64,0.75,0.14,0.25,0.75,0.25,0,0.0,False,290.0,208.82,209.52,True,easy,easy,0.14,0.64,208.810351849,209.527249813,True,1.06799197197,1.0,9.0,64,0,True,0.69314718056,0.0
ti01,a,3,39,ori,1,5,False,True,ori,ori,red,left,True,easy,hard,0.36,0.47,0.14,0.03,0.47,0.03,3,2.16,False,296.0,213.14,213.84,False,hard,easy,0.14,0.36,213.111493826,213.845094919,True,1.95134806633,0.0,4.0,117,0,True,1.09861228867,0.0
ti01,a,3,40,hue,0,6,True,True,hue,hue,red,right,False,hard,hard,0.46,0.53,0.04,0.03,0.46,0.04,4,2.88,False,305.0,219.62,220.32,False,hard,hard,0.03,0.53,219.613658905,220.330541849,False,1.80124187469,1.0,9.0,108,0,True,0.0,0.69314718056
ti01,a,3,41,hue,0,6,False,False,hue,hue,red,left,True,easy,hard,0.36,0.47,0.14,0.03,0.36,0.14,0,0.0,False,315.0,226.82,227.52,False,easy,hard,0.03,0.47,226.798981905,227.532769918,True,0.851119041443,0.0,4.0,51,0,True,0.69314718056,0.0
ti01,a,3,42,hue,0,6,False,False,hue,hue,green,right,True,easy,hard,0.64,0.53,0.14,0.03,0.64,0.14,6,4.32,False,321.0,231.14,231.84,True,easy,hard,0.03,0.53,231.116843939,231.850534916,True,0.884489774704,1.0,9.0,53,0,True,1.09861228867,0.0
ti01,a,3,43,ori,1,5,True,True,ori,ori,green,right,True,easy,easy,0.64,0.75,0.14,0.25,0.75,0.25,0,0.0,False,333.0,239.78,240.48,True,easy,easy,0.14,0.64,239.752993822,240.486562014,True,0.967800855637,1.0,9.0,58,0,True,0.0,0.69314718056
ti01,a,3,44,ori,1,5,False,False,ori,ori,green,right,True,easy,hard,0.64,0.53,0.14,0.03,0.53,0.03,1,0.72,False,339.0,244.1,244.8,True,hard,easy,0.14,0.64,244.087431908,244.80446291,False,1.05123186111,0.0,4.0,63,0,True,0.69314718056,0.0
ti01,a,3,45,hue,1,3,True,True,hue,hue,red,left,True,easy,easy,0.36,0.25,0.14,0.25,0.36,0.14,4,2.88,False,346.0,249.14,249.84,False,easy,easy,0.25,0.25,249.122346878,249.83925581,True,0.901562929153,0.0,4.0,54,0,True,0.0,0.0
ti01,a,3,46,ori,1,5,True,True,ori,ori,red,right,False,hard,hard,0.46,0.53,0.04,0.03,0.53,0.03,6,4.32,False,356.0,256.34,257.04,True,hard,hard,0.04,0.46,256.324772835,257.041433811,False,1.33706402779,0.0,4.0,81,0,True,0.0,0.0
ti01,a,3,47,hue,0,6,True,True,hue,hue,green,left,False,hard,hard,0.54,0.47,0.04,0.03,0.54,0.04,1,0.72,False,368.0,264.98,265.68,True,hard,hard,0.03,0.47,264.960444927,265.69410181,True,1.1679019928,1.0,9.0,70,0,True,0.0,0.0
ti01,a,3,48,ori,0,4,True,True,ori,ori,red,right,False,easy,hard,0.36,0.53,0.14,0.03,0.53,0.03,0,0.0,True,375.0,270.02,270.72,True,hard,easy,0.14,0.36,269.995268822,270.728900909,False,1.41957902908,0.0,4.0,86,0,True,0.0,0.0
ti01,a,3,49,hue,1,3,True,True,hue,hue,green,left,False,easy,hard,0.64,0.47,0.14,0.03,0.64,0.14,0,0.0,False,381.0,274.34,275.04,True,easy,hard,0.03,0.47,274.313405991,275.046677828,True,0.770540952682,1.0,9.0,47,0,True,0.0,0.0
ti01,a,3,50,ori,0,4,True,True,ori,ori,red,left,True,hard,easy,0.46,0.25,0.04,0.25,0.25,0.25,9,6.48,False,387.0,278.66,279.36,False,easy,hard,0.04,0.46,278.648070812,279.364861965,True,0.967751979828,0.0,4.0,58,0,True,0.0,0.0
ti01,a,3,51,ori,0,4,False,False,ori,ori,green,right,True,easy,hard,0.64,0.53,0.14,0.03,0.53,0.03,1,0.72,False,402.0,289.46,290.16,True,hard,easy,0.14,0.64,289.434674025,290.167862892,False,1.03452992439,0.0,4.0,62,0,True,0.69314718056,0.0
ti01,a,3,52,hue,1,3,True,True,hue,hue,green,left,False,easy,easy,0.64,0.25,0.14,0.25,0.64,0.14,5,3.6,False,409.0,294.5,295.2,True,easy,easy,0.25,0.25,294.486081839,295.202761889,True,0.90109705925,1.0,9.0,54,0,True,0.0,0.0
ti01,a,3,53,ori,1,5,True,True,ori,ori,red,right,False,easy,easy,0.36,0.75,0.14,0.25,0.75,0.25,0,0.0,False,420.0,302.42,303.12,True,easy,easy,0.14,0.36,302.40515995,303.121915817,True,1.08441495895,1.0,9.0,65,0,True,0.0,0.0
ti01,a,3,54,hue,1,3,True,True,hue,hue,red,right,False,easy,easy,0.36,0.75,0.14,0.25,0.36,0.14,2,1.44,False,426.0,306.74,307.44,False,easy,easy,0.25,0.75,306.723045826,307.439932823,True,1.31815600395,0.0,4.0,79,0,True,0.0,0.0
ti01,a,3,55,ori,1,5,True,True,ori,ori,green,right,True,hard,hard,0.54,0.53,0.04,0.03,0.53,0.03,0,0.0,False,434.0,312.5,313.2,True,hard,hard,0.04,0.54,312.47484684,313.20825386,False,1.46796488762,0.0,4.0,88,0,True,0.0,0.0
ti01,a,3,56,ori,0,4,False,True,ori,ori,red,left,True,hard,hard,0.46,0.47,0.04,0.03,0.47,0.03,2,1.44,False,440.0,316.82,317.52,False,hard,hard,0.04,0.46,316.809445858,317.526386976,True,1.41718196869,0.0,4.0,85,0,True,0.69314718056,0.0
ti01,a,3,57,ori,0,4,False,False,ori,ori,green,left,False,easy,easy,0.64,0.25,0.14,0.25,0.25,0.25,1,0.72,False,448.0,322.58,323.28,False,easy,easy,0.14,0.64,322.561240911,323.294742823,True,0.917510032654,0.0,4.0,55,0,True,1.09861228867,0.0
ti01,a,3,58,ori,1,5,False,True,ori,ori,green,left,False,hard,hard,0.54,0.47,0.04,0.03,0.47,0.03,0,0.0,False,455.0,327.62,328.32,False,hard,hard,0.04,0.54,327.595939875,328.329741955,True,1.71773314476,0.0,4.0,103,0,True,1.38629436112,0.69314718056
ti01,a,3,59,ori,1,5,False,False,ori,ori,red,left,True,hard,hard,0.46,0.47,0.04,0.03,0.47,0.03,0,0.0,False,461.0,331.94,332.64,False,hard,hard,0.04,0.46,331.91386795,332.647608995,False,2.20134305954,1.0,9.0,132,0,True,1.60943791243,1.09861228867
ti01,a,3,60,hue,0,6,True,True,hue,hue,red,left,True,hard,hard,0.46,0.47,0.04,0.03,0.46,0.04,7,5.04,False,467.0,336.26,336.96,False,hard,hard,0.03,0.47,336.248459816,336.965440989,True,1.75145101547,0.0,4.0,105,0,True,0.0,1.38629436112
ti01,a,3,61,hue,0,6,False,False,hue,hue,red,right,False,easy,easy,0.36,0.75,0.14,0.25,0.36,0.14,3,2.16,False,480.0,345.62,346.32,False,easy,easy,0.25,0.75,345.618110895,346.335255861,True,1.01757097244,0.0,4.0,61,0,True,0.69314718056,0.0
ti01,a,3,62,hue,0,6,False,False,hue,hue,green,left,False,hard,easy,0.54,0.25,0.04,0.25,0.54,0.04,2,1.44,False,489.0,352.1,352.8,True,hard,easy,0.25,0.25,352.086535931,352.803650856,True,1.81812906265,1.0,9.0,109,0,True,1.09861228867,0.0
ti01,a,3,63,hue,1,3,False,True,hue,hue,green,left,False,hard,hard,0.54,0.47,0.04,0.03,0.54,0.04,0,0.0,False,497.0,357.86,358.56,True,hard,hard,0.03,0.47,357.855132818,358.571939945,True,1.11795210838,1.0,9.0,67,0,True,1.38629436112,0.69314718056
ti01,a,4,0,hue,0,6,True,True,hue,hue,green,right,True,hard,easy,0.54,0.75,0.04,0.25,0.54,0.04,2,1.44,False,0.0,0.02,0.72,True,hard,easy,0.25,0.75,0.00511407852173,0.713962078094,True,1.10029101372,1.0,9.0,66,0,True,0.0,0.0
ti01,a,4,1,ori,0,4,True,True,ori,ori,red,right,False,easy,hard,0.36,0.53,0.14,0.03,0.53,0.03,0,0.0,False,8.0,5.78,6.48,True,hard,easy,0.14,0.36,5.76531291008,6.48230695724,False,1.35072183609,0.0,4.0,81,0,True,0.0,0.0
ti01,a,4,2,hue,1,3,True,True,hue,hue,red,left,True,easy,hard,0.36,0.47,0.14,0.03,0.36,0.14,0,0.0,False,14.0,10.1,10.8,False,easy,hard,0.03,0.47,10.0833790302,10.8001990318,True,0.768265962601,0.0,4.0,47,0,True,0.0,0.0
ti01,a,4,3,hue,1,3,False,False,hue,hue,green,right,True,easy,hard,0.64,0.53,0.14,0.03,0.64,0.14,3,2.16,False,20.0,14.42,15.12,True,easy,hard,0.03,0.53,14.4013640881,15.1351029873,True,0.900496959686,1.0,9.0,54,0,True,0.69314718056,0.0
ti01,a,4,4,hue,1,3,False,False,hue,hue,red,left,True,hard,easy,0.46,0.25,0.04,0.25,0.46,0.04,1,0.72,False,29.0,20.9,21.6,False,hard,easy,0.25,0.25,20.8865480423,21.6036469936,False,1.8000099659,1.0,9.0,108,0,True,1.09861228867,0.0
ti01,a,4,5,ori,0,4,True,True,ori,ori,green,left,False,easy,hard,0.64,0.47,0.14,0.03,0.47,0.03,3,2.16,False,36.0,25.94,26.64,False,hard,easy,0.14,0.64,25.921350956,26.6549990177,False,1.28438305855,1.0,9.0,77,0,True,0.0,0.69314718056
ti01,a,4,6,hue,1,3,True,True,hue,hue,green,right,True,hard,hard,0.54,0.53,0.04,0.03,0.54,0.04,0,0.0,False,45.0,32.42,33.12,True,hard,hard,0.03,0.53,32.4069130421,33.1236290932,True,1.48382496834,1.0,9.0,89,0,True,0.0,0.0
ti01,a,4,7,ori,1,5,True,True,ori,ori,red,left,True,hard,easy,0.46,0.25,0.04,0.25,0.25,0.25,2,1.44,False,51.0,36.74,37.44,False,easy,hard,0.04,0.46,36.7247619629,37.4417710304,True,1.06661701202,0.0,4.0,64,0,True,0.0,0.0
ti01,a,4,8,hue,1,3,True,True,hue,hue,green,left,False,hard,hard,0.54,0.47,0.04,0.03,0.54,0.04,5,3.6,False,59.0,42.5,43.2,True,hard,hard,0.03,0.47,42.4764719009,43.2101669312,True,1.26659488678,1.0,9.0,76,0,True,0.0,0.0
ti01,a,4,9,hue,1,3,False,False,hue,hue,red,left,True,hard,hard,0.46,0.47,0.04,0.03,0.46,0.04,0,0.0,False,70.0,50.42,51.12,False,hard,hard,0.03,0.47,50.3957331181,51.1290659904,False,1.51906394958,1.0,9.0,92,0,True,0.69314718056,0.0
ti01,a,4,10,ori,0,4,True,True,ori,ori,red,left,True,easy,easy,0.36,0.25,0.14,0.25,0.25,0.25,1,0.72,False,76.0,54.74,55.44,False,easy,easy,0.14,0.36,54.7133970261,55.4471518993,True,0.916615009308,0.0,4.0,55,0,True,0.0,0.0
ti01,a,4,11,hue,1,3,True,True,hue,hue,red,right,False,easy,easy,0.36,0.75,0.14,0.25,0.36,0.14,2,1.44,False,83.0,59.78,60.48,False,easy,easy,0.25,0.75,59.7650201321,60.4818739891,True,1.55152702332,0.0,4.0,93,0,True,0.0,0.0
ti01,a,4,12,hue,0,6,False,True,hue,hue,red,right,False,hard,hard,0.46,0.53,0.04,0.03,0.46,0.04,1,0.72,False,91.0,65.54,66.24,False,hard,hard,0.03,0.53,65.5167939663,66.2503399849,False,1.56633901596,1.0,9.0,94,0,True,0.69314718056,0.0
ti01,a,4,13,ori,1,5,True,True,ori,ori,green,right,True,hard,hard,0.54,0.53,0.04,0.03,0.53,0.03,0,0.0,False,98.0,70.58,71.28,True,hard,hard,0.04,0.54,70.5517399311,71.2852580547,True,1.81826710701,1.0,9.0,109,0,True,0.0,0.0
ti01,a,4,14,ori,0,4,False,True,ori,ori,green,right,True,easy,easy,0.64,0.75,0.14,0.25,0.75,0.25,6,4.32,False,104.0,74.9,75.6,True,easy,easy,0.14,0.64,74.8860831261,75.603085041,True,0.885834932327,1.0,9.0,54,0,True,0.69314718056,0.0
ti01,a,4,15,ori,0,4,False,False,ori,ori,red,left,True,easy,hard,0.36,0.47,0.14,0.03,0.47,0.03,7,5.04,False,116.0,83.54,84.24,False,hard,easy,0.14,0.36,83.5221700668,84.239125967,True,1.68492412567,0.0,4.0,101,0,True,1.09861228867,0.0
ti01,a,4,16,hue,1,3,True,True,hue,hue,green,left,False,easy,hard,0.64,0.47,0.14,0.03,0.64,0.14,0,0.0,True,129.0,92.9,93.6,True,easy,hard,0.03,0.47,92.891561985,93.6085460186,True,0.817561149597,1.0,9.0,49,0,True,0.0,0.69314718056
ti01,a,4,17,ori,1,5,True,True,ori,ori,red,right,False,easy,easy,0.36,0.75,0.14,0.25,0.75,0.25,0,0.0,False,135.0,97.22,97.92,True,easy,easy,0.14,0.36,97.2096600533,97.926445961,True,0.851427078247,1.0,9.0,51,0,True,0.0,0.0
ti01,a,4,18,hue,1,3,True,True,hue,hue,red,right,False,hard,easy,0.46,0.75,0.04,0.25,0.46,0.04,6,4.32,False,141.0,101.54,102.24,False,hard,easy,0.25,0.75,101.527616978,102.244673014,False,1.83573198318,1.0,9.0,111,0,True,0.0,0.0
ti01,a,4,19,ori,0,4,True,True,ori,ori,green,left,False,hard,easy,0.54,0.25,0.04,0.25,0.25,0.25,2,1.44,False,153.0,110.18,110.88,False,easy,hard,0.04,0.54,110.163456917,110.880373955,True,0.834335803986,0.0,4.0,50,0,True,0.0,0.0
ti01,a,4,20,hue,1,3,True,True,hue,hue,green,right,True,easy,easy,0.64,0.75,0.14,0.25,0.64,0.14,2,1.44,False,161.0,115.94,116.64,True,easy,easy,0.25,0.75,115.915126085,116.648638964,True,0.717864990234,1.0,9.0,43,0,True,0.0,0.0
ti01,a,4,21,hue,1,3,False,False,hue,hue,green,right,True,hard,easy,0.54,0.75,0.04,0.25,0.54,0.04,0,0.0,False,169.0,121.7,122.4,True,hard,easy,0.25,0.75,121.683630943,122.400563002,True,0.600696086884,1.0,9.0,36,0,True,0.69314718056,0.0
ti01,a,4,22,ori,0,4,True,True,ori,ori,red,right,False,hard,hard,0.46,0.53,0.04,0.03,0.53,0.03,3,2.16,False,175.0,126.02,126.72,True,hard,hard,0.04,0.46,126.001596928,126.734997988,False,1.58495998383,0.0,4.0,95,0,True,0.0,0.0
ti01,a,4,23,ori,0,4,False,False,ori,ori,red,right,False,easy,easy,0.36,0.75,0.14,0.25,0.75,0.25,0,0.0,False,184.0,132.5,133.2,True,easy,easy,0.14,0.36,132.486838102,133.20381999,True,1.40122389793,1.0,9.0,84,0,True,0.69314718056,0.0
ti01,a,4,24,ori,1,5,False,True,ori,ori,green,left,False,easy,easy,0.64,0.25,0.14,0.25,0.25,0.25,1,0.72,False,190.0,136.82,137.52,False,easy,easy,0.14,0.64,136.804623127,137.521744967,True,0.95124912262,0.0,4.0,57,0,True,1.09861228867,0.0
ti01,a,4,25,ori,1,5,False,False,ori,ori,green,right,True,easy,hard,0.64,0.53,0.14,0.03,0.53,0.03,1,0.72,False,197.0,141.86,142.56,True,hard,easy,0.14,0.64,141.839559078,142.573220015,True,1.1346590519,1.0,9.0,68,0,True,1.38629436112,0.69314718056
ti01,a,4,26,hue,0,6,True,True,hue,hue,green,left,False,easy,easy,0.64,0.25,0.14,0.25,0.64,0.14,1,0.72,False,204.0,146.9,147.6,True,easy,easy,0.25,0.25,146.874416113,147.608133078,True,0.96743106842,1.0,9.0,58,0,True,0.0,1.09861228867
ti01,a,4,27,hue,0,6,False,False,hue,hue,red,right,False,hard,easy,0.46,0.75,0.04,0.25,0.46,0.04,2,1.44,False,211.0,151.94,152.64,False,hard,easy,0.25,0.75,151.925961018,152.642843962,False,1.25030207634,1.0,9.0,75,0,True,0.69314718056,0.0
ti01,a,4,28,hue,0,6,False,False,hue,hue,red,left,True,hard,hard,0.46,0.47,0.04,0.03,0.46,0.04,4,2.88,False,219.0,157.7,158.4,False,hard,hard,0.03,0.47,157.677716017,158.411462069,True,1.75088596344,0.0,4.0,105,0,True,1.09861228867,0.0
ti01,a,4,29,ori,0,4,True,True,ori,ori,green,left,False,easy,easy,0.64,0.25,0.14,0.25,0.25,0.25,0,0.0,False,229.0,164.9,165.6,False,easy,easy,0.14,0.64,164.879815102,165.613496065,True,0.734666109085,0.0,4.0,44,0,True,0.0,0.69314718056
ti01,a,4,30,ori,1,5,False,True,ori,ori,red,left,True,easy,hard,0.36,0.47,0.14,0.03,0.47,0.03,0,0.0,False,235.0,169.22,169.92,False,hard,easy,0.14,0.36,169.19791913,169.931338072,True,1.65135002136,0.0,4.0,99,0,True,0.69314718056,0.0
ti01,a,4,31,hue,0,6,True,True,hue,hue,red,right,False,easy,easy,0.36,0.75,0.14,0.25,0.36,0.14,2,1.44,False,241.0,173.54,174.24,False,easy,easy,0.25,0.75,173.515919924,174.249655962,True,1.8510389328,0.0,4.0,111,0,True,0.0,0.0
ti01,a,4,32,ori,1,5,True,True,ori,ori,green,left,False,hard,easy,0.54,0.25,0.04,0.25,0.25,0.25,5,3.6,True,249.0,179.3,180.0,False,easy,hard,0.04,0.54,179.284511089,180.000930071,True,1.0177321434,0.0,4.0,61,0,True,0.0,0.0
ti01,a,4,33,hue,1,3,True,True,hue,hue,red,left,True,easy,easy,0.36,0.25,0.14,0.25,0.36,0.14,0,0.0,False,260.0,187.22,187.92,False,easy,easy,0.25,0.25,187.203385115,187.920140982,True,1.38495707512,0.0,4.0,83,0,True,0.0,0.0
ti01,a,4,34,hue,1,3,False,False,hue,hue,red,right,False,easy,hard,0.36,0.53,0.14,0.03,0.36,0.14,0,0.0,False,266.0,191.54,192.24,False,easy,hard,0.03,0.53,191.521225929,192.254979134,True,0.86732006073,0.0,4.0,52,0,True,0.69314718056,0.0
ti01,a,4,35,hue,0,6,False,True,hue,hue,red,left,True,hard,easy,0.46,0.25,0.04,0.25,0.46,0.04,1,0.72,False,272.0,195.86,196.56,False,hard,easy,0.25,0.25,195.839002132,196.572869062,False,1.96806311607,1.0,9.0,118,0,True,1.09861228867,0.0
ti01,a,4,36,hue,1,3,False,True,hue,hue,green,left,False,hard,easy,0.54,0.25,0.04,0.25,0.54,0.04,4,2.88,False,279.0,200.9,201.6,True,hard,easy,0.25,0.25,200.873951912,201.60768199,True,1.33461904526,1.0,9.0,80,0,True,1.38629436112,0.69314718056
ti01,a,4,37,ori,0,4,True,True,ori,ori,green,right,True,easy,hard,0.64,0.53,0.14,0.03,0.53,0.03,0,0.0,False,289.0,208.1,208.8,True,hard,easy,0.14,0.64,208.076025963,208.809740067,True,1.28479409218,1.0,9.0,77,0,True,0.0,1.09861228867
ti01,a,4,38,hue,0,6,True,True,hue,hue,red,left,True,easy,hard,0.36,0.47,0.14,0.03,0.36,0.14,0,0.0,False,295.0,212.42,213.12,False,easy,hard,0.03,0.47,212.394304991,213.127547979,True,1.11839008331,0.0,4.0,67,0,True,0.0,0.0
ti01,a,4,39,ori,0,4,True,True,ori,ori,green,right,True,hard,hard,0.54,0.53,0.04,0.03,0.53,0.03,1,0.72,False,301.0,216.74,217.44,True,hard,hard,0.04,0.54,216.728838921,217.445661068,False,2.11851811409,0.0,4.0,127,0,True,0.0,0.0
ti01,a,4,40,hue,1,3,True,True,hue,hue,red,right,False,hard,hard,0.46,0.53,0.04,0.03,0.46,0.04,3,2.16,False,308.0,221.78,222.48,False,hard,hard,0.03,0.53,221.780263901,222.480576038,False,1.31780314445,1.0,9.0,79,0,True,0.0,0.0
ti01,a,4,41,ori,1,5,True,True,ori,ori,green,right,True,hard,easy,0.54,0.75,0.04,0.25,0.75,0.25,4,2.88,False,317.0,228.26,228.96,True,easy,hard,0.04,0.54,228.232336998,228.965780973,True,1.20111703873,1.0,9.0,72,0,True,0.0,0.0
ti01,a,4,42,ori,1,5,False,False,ori,ori,red,right,False,hard,hard,0.46,0.53,0.04,0.03,0.53,0.03,2,1.44,False,327.0,235.46,236.16,True,hard,hard,0.04,0.46,235.434412003,236.16792798,True,1.20390295982,1.0,9.0,73,0,True,0.69314718056,0.0
ti01,a,4,43,ori,1,5,False,False,ori,ori,green,right,True,easy,easy,0.64,0.75,0.14,0.25,0.75,0.25,1,0.72,False,335.0,241.22,241.92,True,easy,easy,0.14,0.64,241.202884912,241.919726133,True,0.820359945297,1.0,9.0,50,0,True,1.09861228867,0.0
ti01,a,4,44,ori,0,4,False,True,ori,ori,green,left,False,hard,hard,0.54,0.47,0.04,0.03,0.47,0.03,3,2.16,False,342.0,246.26,246.96,False,hard,hard,0.04,0.54,246.23773098,246.971132994,True,1.33500599861,0.0,4.0,80,0,True,1.38629436112,0.69314718056
ti01,a,4,45,hue,0,6,True,True,hue,hue,green,left,False,easy,hard,0.64,0.47,0.14,0.03,0.64,0.14,0,0.0,False,351.0,252.74,253.44,True,easy,hard,0.03,0.47,252.72291398,253.439866066,True,0.934322118759,1.0,9.0,56,0,True,0.0,1.09861228867
ti01,a,4,46,hue,0,6,False,False,hue,hue,green,left,False,hard,easy,0.54,0.25,0.04,0.25,0.54,0.04,1,0.72,False,357.0,257.06,257.76,True,hard,easy,0.25,0.25,257.040909052,257.77445507,True,1.71830701828,1.0,9.0,103,0,True,0.69314718056,0.0
ti01,a,4,47,ori,0,4,True,True,ori,ori,red,left,True,hard,hard,0.46,0.47,0.04,0.03,0.47,0.03,1,0.72,False,364.0,262.1,262.8,False,hard,hard,0.04,0.46,262.075681925,262.809391975,True,1.41755509377,0.0,4.0,85,0,True,0.0,0.0
ti01,a,4,48,ori,1,5,False,True,ori,ori,green,left,False,hard,hard,0.54,0.47,0.04,0.03,0.47,0.03,0,0.0,True,371.0,267.14,267.84,False,hard,hard,0.04,0.54,267.127286911,267.84415102,True,1.98448896408,0.0,4.0,119,0,True,0.69314718056,0.0
ti01,a,4,49,ori,1,5,False,False,ori,ori,red,left,True,hard,hard,0.46,0.47,0.04,0.03,0.47,0.03,0,0.0,False,377.0,271.46,272.16,False,hard,hard,0.04,0.46,271.445394039,272.161930084,True,1.75155115128,0.0,4.0,105,0,True,1.09861228867,0.0
ti01,a,4,50,hue,0,6,True,True,hue,hue,green,left,False,hard,hard,0.54,0.47,0.04,0.03,0.54,0.04,3,2.16,False,383.0,275.78,276.48,True,hard,hard,0.03,0.47,275.779894114,276.480243921,True,1.80131316185,1.0,9.0,108,0,True,0.0,0.69314718056
ti01,a,4,51,hue,0,6,False,False,hue,hue,green,right,True,easy,easy,0.64,0.75,0.14,0.25,0.64,0.14,0,0.0,False,392.0,282.26,282.96,True,easy,easy,0.25,0.75,282.231997013,282.965428114,True,1.38460707664,1.0,9.0,83,0,True,0.69314718056,0.0
ti01,a,4,52,hue,0,6,False,False,hue,hue,red,right,False,easy,hard,0.36,0.53,0.14,0.03,0.36,0.14,8,5.76,False,398.0,286.58,287.28,False,easy,hard,0.03,0.53,286.566514015,287.283561945,True,0.86737203598,0.0,4.0,52,0,True,1.09861228867,0.0
ti01,a,4,53,ori,1,5,True,True,ori,ori,green,left,False,easy,hard,0.64,0.47,0.14,0.03,0.47,0.03,1,0.72,False,412.0,296.66,297.36,False,hard,easy,0.14,0.64,296.636223078,297.369786978,True,1.28420901299,0.0,4.0,77,0,True,0.0,0.69314718056
ti01,a,4,54,hue,0,6,True,True,hue,hue,green,right,True,easy,hard,0.64,0.53,0.14,0.03,0.64,0.14,0,0.0,False,419.0,301.7,302.4,True,easy,hard,0.03,0.53,301.687618017,302.404675007,True,1.61789512634,1.0,9.0,97,0,True,0.0,0.0
ti01,a,4,55,hue,0,6,False,False,hue,hue,green,right,True,hard,hard,0.54,0.53,0.04,0.03,0.54,0.04,4,2.88,False,425.0,306.02,306.72,True,hard,hard,0.03,0.53,306.005491972,306.722543001,True,1.01766705513,1.0,9.0,61,0,True,0.69314718056,0.0
ti01,a,4,56,hue,1,3,False,True,hue,hue,green,left,False,easy,easy,0.64,0.25,0.14,0.25,0.64,0.14,0,0.0,False,435.0,313.22,313.92,True,easy,easy,0.25,0.25,313.20787096,313.924597025,True,0.767915964127,1.0,9.0,46,0,True,1.09861228867,0.0
ti01,a,4,57,ori,0,4,True,True,ori,ori,green,right,True,hard,easy,0.54,0.75,0.04,0.25,0.75,0.25,5,3.6,False,441.0,317.54,318.24,True,easy,hard,0.04,0.54,317.525810003,318.242702007,True,0.81919503212,1.0,9.0,49,0,True,0.0,0.69314718056
ti01,a,4,58,ori,1,5,False,True,ori,ori,red,right,False,easy,hard,0.36,0.53,0.14,0.03,0.53,0.03,1,0.72,False,452.0,325.46,326.16,True,hard,easy,0.14,0.36,325.444903135,326.161466122,True,2.05135393143,1.0,9.0,123,0,True,0.69314718056,0.0
ti01,a,4,59,ori,0,4,False,True,ori,ori,red,left,True,hard,easy,0.46,0.25,0.04,0.25,0.25,0.25,1,0.72,False,459.0,330.5,331.2,False,easy,hard,0.04,0.46,330.496419907,331.213160992,True,0.751055002213,0.0,4.0,45,0,True,1.09861228867,0.0
ti01,a,4,60,ori,0,4,False,False,ori,ori,red,right,False,hard,easy,0.46,0.75,0.04,0.25,0.75,0.25,2,1.44,False,466.0,335.54,336.24,True,easy,hard,0.04,0.46,335.51466012,336.248115063,True,0.852864027023,1.0,9.0,52,0,True,1.38629436112,0.69314718056
ti01,a,4,61,hue,0,6,True,True,hue,hue,red,left,True,easy,easy,0.36,0.25,0.14,0.25,0.36,0.14,9,6.48,False,474.0,341.3,342.0,False,easy,easy,0.25,0.25,341.283051968,341.999694109,True,2.12058281898,0.0,4.0,128,0,True,0.0,1.09861228867
ti01,a,4,62,ori,1,5,True,True,ori,ori,red,right,False,hard,easy,0.46,0.75,0.04,0.25,0.75,0.25,2,1.44,False,489.0,352.1,352.8,True,easy,hard,0.04,0.46,352.086041927,352.802887917,True,1.00122904778,1.0,9.0,60,0,True,0.0,0.0
ti01,a,4,63,ori,1,5,False,False,ori,ori,red,left,True,easy,easy,0.36,0.25,0.14,0.25,0.25,0.25,0,0.0,False,497.0,357.86,358.56,False,easy,easy,0.14,0.36,357.837865114,358.571510077,True,0.650949954987,0.0,4.0,39,0,True,0.69314718056,0.0
ti01,a,5,0,ori,1,5,True,True,ori,ori,red,right,False,hard,easy,0.46,0.75,0.04,0.25,0.75,0.25,2,1.44,False,0.0,0.02,0.72,True,easy,hard,0.04,0.46,0.00508904457092,0.716932058334,True,1.30023789406,1.0,9.0,78,0,True,0.0,0.0
ti01,a,5,1,hue,0,6,True,True,hue,hue,red,left,True,easy,hard,0.36,0.47,0.14,0.03,0.36,0.14,3,2.16,False,8.0,5.78,6.48,False,easy,hard,0.03,0.47,5.76827502251,6.48539495468,True,1.08469080925,0.0,4.0,65,0,True,0.0,0.0
ti01,a,5,2,ori,0,4,True,True,ori,ori,red,right,False,easy,easy,0.36,0.75,0.14,0.25,0.75,0.25,6,4.32,False,17.0,12.26,12.96,True,easy,easy,0.14,0.36,12.2368268967,12.970498085,True,1.03552985191,1.0,9.0,63,0,True,0.0,0.0
ti01,a,5,3,hue,0,6,True,True,hue,hue,green,right,True,hard,easy,0.54,0.75,0.04,0.25,0.54,0.04,2,1.44,False,29.0,20.9,21.6,True,hard,easy,0.25,0.75,20.8895120621,21.6064469814,True,1.0499830246,1.0,9.0,63,0,True,0.0,0.0
ti01,a,5,4,ori,0,4,True,True,ori,ori,red,left,True,easy,hard,0.36,0.47,0.14,0.03,0.47,0.03,4,2.88,False,37.0,26.66,27.36,False,hard,easy,0.14,0.36,26.6412398815,27.3747370243,True,0.950794935226,0.0,4.0,57,0,True,0.0,0.0
ti01,a,5,5,hue,1,3,True,True,hue,hue,red,left,True,hard,hard,0.46,0.47,0.04,0.03,0.46,0.04,9,6.48,False,47.0,33.86,34.56,False,hard,hard,0.03,0.47,33.8433930874,34.5603370667,False,1.56647396088,1.0,9.0,94,0,True,0.0,0.0
ti01,a,5,6,ori,1,5,True,True,ori,ori,red,left,True,hard,easy,0.46,0.25,0.04,0.25,0.25,0.25,2,1.44,False,62.0,44.66,45.36,False,easy,hard,0.04,0.46,44.6468949318,45.3634750843,True,1.13510203362,0.0,4.0,69,0,True,0.0,0.0
ti01,a,5,7,ori,1,5,False,False,ori,ori,red,right,False,easy,easy,0.36,0.75,0.14,0.25,0.75,0.25,1,0.72,False,70.0,50.42,51.12,True,easy,easy,0.14,0.36,50.3983368874,51.1318728924,True,1.06682896614,1.0,9.0,64,0,True,0.69314718056,0.0
ti01,a,5,8,ori,1,5,False,False,ori,ori,green,right,True,easy,hard,0.64,0.53,0.14,0.03,0.53,0.03,0,0.0,False,77.0,55.46,56.16,True,hard,easy,0.14,0.64,55.450001955,56.1665461063,True,1.48368000984,1.0,9.0,89,0,True,1.09861228867,0.0
ti01,a,5,9,ori,0,4,False,True,ori,ori,green,right,True,hard,easy,0.54,0.75,0.04,0.25,0.75,0.25,5,3.6,False,83.0,59.78,60.48,True,easy,hard,0.04,0.54,59.7678370476,60.4847788811,True,1.10009002686,1.0,9.0,66,0,True,1.38629436112,0.69314718056
ti01,a,5,10,hue,0,6,True,True,hue,hue,red,right,False,easy,hard,0.36,0.53,0.14,0.03,0.36,0.14,1,0.72,False,94.0,67.7,68.4,False,easy,hard,0.03,0.53,67.6869270802,68.4035949707,False,1.61848306656,1.0,9.0,97,0,True,0.0,1.09861228867
ti01,a,5,11,ori,1,5,True,True,ori,ori,green,left,False,easy,easy,0.64,0.25,0.14,0.25,0.25,0.25,0,0.0,False,101.0,72.74,73.44,False,easy,easy,0.14,0.64,72.7217741013,73.4386661053,True,0.83429312706,0.0,4.0,50,0,True,0.0,0.0
ti01,a,5,12,ori,1,5,False,False,ori,ori,green,left,False,easy,hard,0.64,0.47,0.14,0.03,0.47,0.03,1,0.72,False,107.0,77.06,77.76,False,hard,easy,0.14,0.64,77.039591074,77.7733500004,True,1.7171049118,0.0,4.0,103,0,True,0.69314718056,0.0
ti01,a,5,13,hue,1,3,True,True,hue,hue,green,left,False,easy,easy,0.64,0.25,0.14,0.25,0.64,0.14,4,2.88,False,114.0,82.1,82.8,True,easy,easy,0.25,0.25,82.0744519234,82.8082079887,True,0.735997915268,1.0,9.0,44,0,True,0.0,0.0
ti01,a,5,14,hue,1,3,False,False,hue,hue,red,right,False,easy,easy,0.36,0.75,0.14,0.25,0.36,0.14,1,0.72,False,124.0,89.3,90.0,False,easy,easy,0.25,0.75,89.2766160965,90.0102388859,True,0.886792898178,0.0,4.0,54,0,True,0.69314718056,0.0
ti01,a,5,15,ori,0,4,True,True,ori,ori,green,right,True,easy,easy,0.64,0.75,0.14,0.25,0.75,0.25,1,0.72,False,131.0,94.34,95.04,True,easy,easy,0.14,0.64,94.3113770485,95.0450499058,True,0.867905139923,1.0,9.0,52,0,True,0.0,0.0
ti01,a,5,16,ori,0,4,False,False,ori,ori,green,left,False,hard,hard,0.54,0.47,0.04,0.03,0.47,0.03,1,0.72,True,138.0,99.38,100.08,False,hard,hard,0.04,0.54,99.3629660606,100.079960108,True,1.35119581223,0.0,4.0,81,0,True,0.69314718056,0.0
ti01,a,5,17,ori,1,5,False,True,ori,ori,red,left,True,hard,hard,0.46,0.47,0.04,0.03,0.47,0.03,1,0.72,False,145.0,104.42,105.12,False,hard,hard,0.04,0.46,104.397646904,105.131472111,True,1.80151486397,0.0,4.0,108,0,True,1.09861228867,0.0
ti01,a,5,18,hue,0,6,True,True,hue,hue,green,right,True,easy,hard,0.64,0.53,0.14,0.03,0.64,0.14,1,0.72,False,152.0,109.46,110.16,True,easy,hard,0.03,0.53,109.432660103,110.16622591,True,0.834192037582,1.0,9.0,50,0,True,0.0,0.69314718056
ti01,a,5,19,hue,1,3,False,True,hue,hue,green,left,False,hard,easy,0.54,0.25,0.04,0.25,0.54,0.04,5,3.6,False,159.0,114.5,115.2,True,hard,easy,0.25,0.25,114.484256983,115.20102191,True,0.767771959305,1.0,9.0,46,0,True,0.69314718056,0.0
ti01,a,5,20,ori,1,5,True,True,ori,ori,red,left,True,easy,easy,0.36,0.25,0.14,0.25,0.25,0.25,2,1.44,False,170.0,122.42,123.12,False,easy,easy,0.14,0.36,122.403135061,123.120203972,True,1.01797294617,0.0,4.0,61,0,True,0.0,0.0
ti01,a,5,21,ori,0,4,False,True,ori,ori,green,left,False,easy,easy,0.64,0.25,0.14,0.25,0.25,0.25,0,0.0,False,178.0,128.18,128.88,False,easy,easy,0.14,0.64,128.154979944,128.888453007,True,1.63496494293,0.0,4.0,98,0,True,0.69314718056,0.0
ti01,a,5,22,hue,0,6,True,True,hue,hue,red,left,True,easy,easy,0.36,0.25,0.14,0.25,0.36,0.14,4,2.88,False,184.0,132.5,133.2,False,easy,easy,0.25,0.25,132.473118067,133.206532001,True,1.35113191605,0.0,4.0,81,0,True,0.0,0.0
ti01,a,5,23,hue,0,6,False,False,hue,hue,green,left,False,easy,hard,0.64,0.47,0.14,0.03,0.64,0.14,0,0.0,False,194.0,139.7,140.4,True,easy,hard,0.03,0.47,139.675285101,140.408655882,True,1.03475213051,1.0,9.0,62,0,True,0.69314718056,0.0
ti01,a,5,24,hue,0,6,False,False,hue,hue,green,left,False,hard,hard,0.54,0.47,0.04,0.03,0.54,0.04,2,1.44,False,200.0,144.02,144.72,True,hard,hard,0.03,0.47,143.993159056,144.726619959,True,0.984850883484,1.0,9.0,59,0,True,1.09861228867,0.0
ti01,a,5,25,ori,1,5,True,True,ori,ori,green,right,True,hard,hard,0.54,0.53,0.04,0.03,0.53,0.03,3,2.16,False,208.0,149.78,150.48,True,hard,hard,0.04,0.54,149.761548996,150.495176077,True,1.43433785439,1.0,9.0,86,0,True,0.0,0.69314718056
ti01,a,5,26,hue,1,3,True,True,hue,hue,red,right,False,hard,easy,0.46,0.75,0.04,0.25,0.46,0.04,7,5.04,False,217.0,156.26,156.96,False,hard,easy,0.25,0.75,156.246738911,156.963474989,False,1.60373711586,1.0,9.0,97,0,True,0.0,0.0
ti01,a,5,27,hue,1,3,False,False,hue,hue,red,right,False,hard,hard,0.46,0.53,0.04,0.03,0.46,0.04,1,0.72,False,230.0,165.62,166.32,False,hard,hard,0.03,0.53,165.599731922,166.333074093,False,1.68694591522,1.0,9.0,102,0,True,0.69314718056,0.0
ti01,a,5,28,hue,1,3,False,False,hue,hue,red,left,True,easy,easy,0.36,0.25,0.14,0.25,0.36,0.14,2,1.44,False,237.0,170.66,171.36,False,easy,easy,0.25,0.25,170.63440299,171.367897034,True,1.13718795776,0.0,4.0,69,0,True,1.09861228867,0.0
ti01,a,5,29,hue,0,6,False,True,hue,hue,green,right,True,hard,hard,0.54,0.53,0.04,0.03,0.54,0.04,0,0.0,False,245.0,176.42,177.12,True,hard,hard,0.03,0.53,176.402647972,177.119538069,True,1.21811294556,1.0,9.0,73,0,True,1.38629436112,0.69314718056
ti01,a,5,30,hue,1,3,False,True,hue,hue,green,left,False,hard,hard,0.54,0.47,0.04,0.03,0.54,0.04,0,0.0,False,251.0,180.74,181.44,True,hard,hard,0.03,0.47,180.721050024,181.454366922,True,0.96812915802,1.0,9.0,58,0,True,1.60943791243,1.09861228867
ti01,a,5,31,ori,0,4,True,True,ori,ori,red,right,False,hard,hard,0.46,0.53,0.04,0.03,0.53,0.03,6,4.32,False,257.0,185.06,185.76,True,hard,hard,0.04,0.46,185.038626909,185.772381067,True,1.50296401978,1.0,9.0,91,0,True,0.0,1.38629436112
ti01,a,5,32,ori,1,5,False,True,ori,ori,green,right,True,easy,easy,0.64,0.75,0.14,0.25,0.75,0.25,5,3.6,True,269.0,193.7,194.4,True,easy,easy,0.14,0.64,193.674952984,194.408051014,True,1.2680978775,1.0,9.0,76,0,True,0.69314718056,0.0
ti01,a,5,33,ori,0,4,False,True,ori,ori,green,right,True,hard,hard,0.54,0.53,0.04,0.03,0.53,0.03,0,0.0,False,280.0,201.62,202.32,True,hard,hard,0.04,0.54,201.610522985,202.327173948,False,1.40108084679,0.0,4.0,84,0,True,1.09861228867,0.0
ti01,a,5,34,ori,1,5,False,True,ori,ori,green,left,False,hard,easy,0.54,0.25,0.04,0.25,0.25,0.25,0,0.0,False,286.0,205.94,206.64,False,easy,hard,0.04,0.54,205.928423882,206.645441055,True,1.20094394684,0.0,4.0,72,0,True,1.38629436112,0.69314718056
ti01,a,5,35,hue,1,3,True,True,hue,hue,green,right,True,easy,hard,0.64,0.53,0.14,0.03,0.64,0.14,0,0.0,False,292.0,210.26,210.96,True,easy,hard,0.03,0.53,210.246269941,210.963077068,True,0.834733963013,1.0,9.0,50,0,True,0.0,1.09861228867
ti01,a,5,36,ori,0,4,True,True,ori,ori,green,left,False,easy,hard,0.64,0.47,0.14,0.03,0.47,0.03,1,0.72,False,298.0,214.58,215.28,False,hard,easy,0.14,0.64,214.564387083,215.280986071,True,1.65131902695,0.0,4.0,99,0,True,0.0,0.0
ti01,a,5,37,hue,1,3,True,True,hue,hue,green,right,True,hard,hard,0.54,0.53,0.04,0.03,0.54,0.04,0,0.0,False,305.0,219.62,220.32,True,hard,hard,0.03,0.53,219.599212885,220.332597971,True,0.768356084824,1.0,9.0,46,0,True,0.0,0.0
ti01,a,5,38,hue,1,3,False,False,hue,hue,green,right,True,easy,easy,0.64,0.75,0.14,0.25,0.64,0.14,2,1.44,False,311.0,223.94,224.64,True,easy,easy,0.25,0.75,223.917093992,224.65082407,True,0.750794172287,1.0,9.0,45,0,True,0.69314718056,0.0
ti01,a,5,39,ori,0,4,True,True,ori,ori,red,right,False,hard,easy,0.46,0.75,0.04,0.25,0.75,0.25,0,0.0,False,319.0,229.7,230.4,True,easy,hard,0.04,0.46,229.685400963,230.402218103,True,1.26805186272,1.0,9.0,76,0,True,0.0,0.0
ti01,a,5,40,hue,1,3,True,True,hue,hue,red,left,True,hard,easy,0.46,0.25,0.04,0.25,0.46,0.04,0,0.0,False,325.0,234.02,234.72,False,hard,easy,0.25,0.25,234.003612041,234.720499039,False,2.08513307571,1.0,9.0,125,0,True,0.0,0.0
ti01,a,5,41,ori,0,4,True,True,ori,ori,green,right,True,easy,hard,0.64,0.53,0.14,0.03,0.53,0.03,0,0.0,False,331.0,238.34,239.04,True,hard,easy,0.14,0.64,238.337991953,239.05491209,False,1.8704829216,0.0,4.0,113,0,True,0.0,0.0
ti01,a,5,42,ori,0,4,False,False,ori,ori,red,left,True,hard,easy,0.46,0.25,0.04,0.25,0.25,0.25,4,2.88,False,337.0,242.66,243.36,False,easy,hard,0.04,0.46,242.656089067,243.372792959,True,1.18476200104,0.0,4.0,71,0,True,0.69314718056,0.0
ti01,a,5,43,hue,0,6,True,True,hue,hue,green,right,True,easy,easy,0.64,0.75,0.14,0.25,0.64,0.14,1,0.72,False,347.0,249.86,250.56,True,easy,easy,0.25,0.75,249.841538906,250.575200081,True,0.884001970291,1.0,9.0,53,0,True,0.0,0.0
ti01,a,5,44,ori,1,5,True,True,ori,ori,red,left,True,easy,hard,0.36,0.47,0.14,0.03,0.47,0.03,0,0.0,False,354.0,254.9,255.6,False,hard,easy,0.14,0.36,254.876440048,255.60999608,True,1.46823501587,0.0,4.0,88,0,True,0.0,0.0
ti01,a,5,45,ori,1,5,False,False,ori,ori,green,right,True,hard,easy,0.54,0.75,0.04,0.25,0.75,0.25,3,2.16,False,360.0,259.22,259.92,True,easy,hard,0.04,0.54,259.194250107,259.927922964,True,0.918083190918,1.0,9.0,55,0,True,0.69314718056,0.0
ti01,a,5,46,ori,0,4,False,True,ori,ori,red,right,False,easy,hard,0.36,0.53,0.14,0.03,0.53,0.03,0,0.0,False,369.0,265.7,266.4,True,hard,easy,0.14,0.36,265.679589987,266.41305089,False,1.63456678391,0.0,4.0,98,0,True,1.09861228867,0.0
ti01,a,5,47,hue,0,6,True,True,hue,hue,green,left,False,hard,easy,0.54,0.25,0.04,0.25,0.54,0.04,3,2.16,False,375.0,270.02,270.72,True,hard,easy,0.25,0.25,269.997447014,270.731246948,True,2.01797389984,1.0,9.0,121,0,True,0.0,0.69314718056
ti01,a,5,48,hue,0,6,False,False,hue,hue,red,left,True,hard,easy,0.46,0.25,0.04,0.25,0.46,0.04,2,1.44,True,384.0,276.5,277.2,False,hard,easy,0.25,0.25,276.482870102,277.199868917,True,1.30127716064,0.0,4.0,78,0,True,0.69314718056,0.0
ti01,a,5,49,hue,1,3,False,True,hue,hue,red,right,False,easy,hard,0.36,0.53,0.14,0.03,0.36,0.14,1,0.72,False,392.0,282.26,282.96,False,easy,hard,0.03,0.53,282.234638929,282.968250036,True,1.32032203674,0.0,4.0,80,0,True,1.09861228867,0.0
ti01,a,5,50,hue,0,6,False,True,hue,hue,red,right,False,easy,easy,0.36,0.75,0.14,0.25,0.36,0.14,3,2.16,False,399.0,287.3,288.0,False,easy,easy,0.25,0.75,287.28601408,288.003057003,True,1.23425197601,0.0,4.0,74,0,True,1.38629436112,0.69314718056
ti01,a,5,51,ori,0,4,True,True,ori,ori,red,left,True,easy,easy,0.36,0.25,0.14,0.25,0.25,0.25,8,5.76,False,408.0,293.78,294.48,False,easy,easy,0.14,0.36,293.754659891,294.488351107,True,1.16771578789,0.0,4.0,70,0,True,0.0,1.09861228867
ti01,a,5,52,hue,0,6,True,True,hue,hue,red,right,False,hard,easy,0.46,0.75,0.04,0.25,0.46,0.04,0,0.0,False,422.0,303.86,304.56,False,hard,easy,0.25,0.75,303.841037989,304.574754953,True,2.40174293518,0.0,4.0,144,0,True,0.0,0.0
ti01,a,5,53,hue,1,3,False,True,hue,hue,green,right,True,hard,easy,0.54,0.75,0.04,0.25,0.54,0.04,0,0.0,False,428.0,308.18,308.88,True,hard,easy,0.25,0.75,308.175734997,308.892673016,True,1.18441104889,1.0,9.0,71,0,True,0.69314718056,0.0
ti01,a,5,54,hue,0,6,False,True,hue,hue,red,left,True,hard,hard,0.46,0.47,0.04,0.03,0.46,0.04,0,0.0,False,434.0,312.5,313.2,False,hard,hard,0.03,0.47,312.47694397,313.210665941,False,2.01828598976,1.0,9.0,121,0,True,1.09861228867,0.0
ti01,a,5,55,hue,1,3,False,True,hue,hue,green,left,False,easy,hard,0.64,0.47,0.14,0.03,0.64,0.14,3,2.16,False,440.0,316.82,317.52,True,easy,hard,0.03,0.47,316.795013905,317.52877593,True,0.717272996902,1.0,9.0,43,0,True,1.38629436112,0.69314718056
ti01,a,5,56,hue,1,3,False,False,hue,hue,red,left,True,easy,hard,0.36,0.47,0.14,0.03,0.36,0.14,0,0.0,False,449.0,323.3,324.0,False,easy,hard,0.03,0.47,323.280164003,324.013778925,True,1.46764206886,0.0,4.0,88,0,True,1.60943791243,1.09861228867
ti01,a,5,57,ori,1,5,True,True,ori,ori,red,right,False,hard,hard,0.46,0.53,0.04,0.03,0.53,0.03,0,0.0,False,455.0,327.62,328.32,True,hard,hard,0.04,0.46,327.598342896,328.331680059,True,1.20169901848,1.0,9.0,72,0,True,0.0,1.38629436112
ti01,a,5,58,ori,0,4,False,True,ori,ori,red,left,True,hard,hard,0.46,0.47,0.04,0.03,0.47,0.03,2,1.44,False,461.0,331.94,332.64,False,hard,hard,0.04,0.46,331.916151047,332.649797916,True,1.13454198837,0.0,4.0,68,0,True,0.69314718056,0.0
ti01,a,5,59,ori,1,5,False,True,ori,ori,green,left,False,hard,hard,0.54,0.47,0.04,0.03,0.47,0.03,2,1.44,False,469.0,337.7,338.4,False,hard,hard,0.04,0.54,337.684779882,338.401412964,True,1.7679040432,0.0,4.0,106,0,True,1.09861228867,0.0
ti01,a,5,60,ori,0,4,False,True,ori,ori,green,left,False,hard,easy,0.54,0.25,0.04,0.25,0.25,0.25,0,0.0,False,477.0,343.46,344.16,False,easy,hard,0.04,0.54,343.436275959,344.16970706,True,0.951167106628,0.0,4.0,57,0,True,1.38629436112,0.69314718056
ti01,a,5,61,hue,0,6,True,True,hue,hue,green,left,False,easy,easy,0.64,0.25,0.14,0.25,0.64,0.14,1,0.72,False,483.0,347.78,348.48,True,easy,easy,0.25,0.25,347.754350901,348.487838984,True,1.18480205536,1.0,9.0,71,0,True,0.0,1.09861228867
ti01,a,5,62,hue,0,6,False,False,hue,hue,red,right,False,hard,hard,0.46,0.53,0.04,0.03,0.46,0.04,1,0.72,False,490.0,352.82,353.52,False,hard,hard,0.03,0.53,352.805907011,353.522794962,False,1.03459382057,1.0,9.0,62,0,True,0.69314718056,0.0
ti01,a,5,63,ori,1,5,True,True,ori,ori,red,right,False,easy,hard,0.36,0.53,0.14,0.03,0.53,0.03,0,0.0,False,497.0,357.86,358.56,True,hard,easy,0.14,0.36,357.840686083,358.574232101,False,1.3342769146,0.0,4.0,80,0,True,0.0,0.0
ti01,a,6,0,ori,1,5,True,True,ori,ori,green,right,True,easy,hard,0.64,0.53,0.14,0.03,0.53,0.03,3,2.16,False,0.0,0.02,0.72,True,hard,easy,0.14,0.64,0.00518107414246,0.713581085205,True,1.4010848999,1.0,9.0,85,0,True,0.0,0.0
ti01,a,6,1,hue,0,6,True,True,hue,hue,red,left,True,hard,easy,0.46,0.25,0.04,0.25,0.46,0.04,3,2.16,False,9.0,6.5,7.2,False,hard,easy,0.25,0.25,6.48179316521,7.21555614471,False,1.16739416122,1.0,9.0,70,0,True,0.0,0.0
ti01,a,6,2,hue,1,3,False,True,hue,hue,green,left,False,hard,hard,0.54,0.47,0.04,0.03,0.54,0.04,4,2.88,False,18.0,12.98,13.68,True,hard,hard,0.03,0.47,12.9674651623,13.684014082,True,1.7514359951,1.0,9.0,105,0,True,0.69314718056,0.0
ti01,a,6,3,hue,0,6,False,True,hue,hue,green,left,False,hard,easy,0.54,0.25,0.04,0.25,0.54,0.04,0,0.0,False,28.0,20.18,20.88,True,hard,easy,0.25,0.25,20.1527791023,20.8862690926,True,1.81769585609,1.0,9.0,109,0,True,1.09861228867,0.0
ti01,a,6,4,ori,0,4,True,True,ori,ori,green,left,False,hard,hard,0.54,0.47,0.04,0.03,0.47,0.03,1,0.72,False,34.0,24.5,25.2,False,hard,hard,0.04,0.54,24.4706139565,25.2041831017,True,1.38385105133,0.0,4.0,83,0,True,0.0,0.69314718056
ti01,a,6,5,hue,0,6,True,True,hue,hue,red,left,True,easy,easy,0.36,0.25,0.14,0.25,0.36,0.14,1,0.72,False,41.0,29.54,30.24,False,easy,easy,0.25,0.25,29.5218901634,30.2556910515,True,1.05068707466,0.0,4.0,63,0,True,0.0,0.0
ti01,a,6,6,ori,0,4,True,True,ori,ori,green,right,True,hard,hard,0.54,0.53,0.04,0.03,0.53,0.03,0,0.0,False,48.0,34.58,35.28,True,hard,hard,0.04,0.54,34.5569741726,35.2905261517,False,1.56815004349,0.0,4.0,94,0,True,0.0,0.0
ti01,a,6,7,hue,0,6,True,True,hue,hue,green,right,True,easy,easy,0.64,0.75,0.14,0.25,0.64,0.14,2,1.44,False,54.0,38.9,39.6,True,easy,easy,0.25,0.75,38.8750481606,39.6084339619,True,1.23463606834,1.0,9.0,74,0,True,0.0,0.0
ti01,a,6,8,ori,1,5,True,True,ori,ori,red,right,False,easy,hard,0.36,0.53,0.14,0.03,0.53,0.03,0,0.0,False,62.0,44.66,45.36,True,hard,easy,0.14,0.36,44.6432991028,45.360147953,True,1.6839120388,1.0,9.0,101,0,True,0.0,0.0
ti01,a,6,9,ori,1,5,False,False,ori,ori,red,right,False,easy,easy,0.36,0.75,0.14,0.25,0.75,0.25,5,3.6,False,68.0,48.98,49.68,True,easy,easy,0.14,0.36,48.961327076,49.6947331429,True,0.934854984283,1.0,9.0,56,0,True,0.69314718056,0.0
ti01,a,6,10,ori,0,4,False,True,ori,ori,red,left,True,hard,hard,0.46,0.47,0.04,0.03,0.47,0.03,0,0.0,False,79.0,56.9,57.6,False,hard,hard,0.04,0.46,56.8804609776,57.6136641502,True,0.966854095459,0.0,4.0,58,0,True,1.09861228867,0.0
ti01,a,6,11,ori,0,4,False,False,ori,ori,green,right,True,easy,hard,0.64,0.53,0.14,0.03,0.53,0.03,0,0.0,False,85.0,61.22,61.92,True,hard,easy,0.14,0.64,61.1983230114,61.9320149422,False,1.30128788948,0.0,4.0,79,0,True,1.38629436112,0.69314718056
ti01,a,6,12,ori,1,5,False,True,ori,ori,green,right,True,hard,hard,0.54,0.53,0.04,0.03,0.53,0.03,0,0.0,False,91.0,65.54,66.24,True,hard,hard,0.04,0.54,65.5160861015,66.2498180866,False,1.48343110085,0.0,4.0,89,0,True,1.60943791243,1.09861228867
ti01,a,6,13,hue,1,3,True,True,hue,hue,green,right,True,hard,easy,0.54,0.75,0.04,0.25,0.54,0.04,1,0.72,False,97.0,69.86,70.56,True,hard,easy,0.25,0.75,69.8342339993,70.5677320957,False,1.98356199265,0.0,4.0,119,0,True,0.0,1.38629436112
ti01,a,6,14,ori,0,4,True,True,ori,ori,green,left,False,easy,easy,0.64,0.25,0.14,0.25,0.25,0.25,7,5.04,False,104.0,74.9,75.6,False,easy,easy,0.14,0.64,74.8858830929,75.6026439667,True,0.884546041489,0.0,4.0,53,0,True,0.0,0.0
ti01,a,6,15,ori,0,4,False,False,ori,ori,red,left,True,easy,hard,0.36,0.47,0.14,0.03,0.47,0.03,1,0.72,False,117.0,84.26,84.96,False,hard,easy,0.14,0.36,84.2385261059,84.9722161293,True,2.26687097549,0.0,4.0,136,0,True,0.69314718056,0.0
ti01,a,6,16,ori,0,4,False,False,ori,ori,red,right,False,hard,hard,0.46,0.53,0.04,0.03,0.53,0.03,3,2.16,True,124.0,89.3,90.0,True,hard,hard,0.04,0.46,89.2736370564,90.007060051,True,2.08510112762,1.0,9.0,125,0,True,1.09861228867,0.0
ti01,a,6,17,hue,1,3,True,True,hue,hue,red,left,True,easy,easy,0.36,0.25,0.14,0.25,0.36,0.14,1,0.72,False,133.0,95.78,96.48,False,easy,easy,0.25,0.25,95.7588510513,96.4921009541,True,1.30083107948,0.0,4.0,78,0,True,0.0,0.69314718056
ti01,a,6,18,hue,0,6,False,True,hue,hue,red,right,False,easy,easy,0.36,0.75,0.14,0.25,0.36,0.14,9,6.48,False,140.0,100.82,101.52,False,easy,easy,0.25,0.75,100.793714046,101.527078152,True,1.46844911575,0.0,4.0,88,0,True,0.69314718056,0.0
ti01,a,6,19,hue,0,6,False,False,hue,hue,green,right,True,hard,easy,0.54,0.75,0.04,0.25,0.54,0.04,2,1.44,False,155.0,111.62,112.32,True,hard,easy,0.25,0.75,111.596578121,112.330274105,True,1.78444886208,1.0,9.0,107,0,True,1.09861228867,0.0
ti01,a,6,20,ori,1,5,True,True,ori,ori,red,left,True,hard,easy,0.46,0.25,0.04,0.25,0.25,0.25,1,0.72,False,163.0,117.38,118.08,False,easy,hard,0.04,0.46,117.365065098,118.081973076,True,1.38495206833,0.0,4.0,83,0,True,0.0,0.69314718056
ti01,a,6,21,ori,0,4,False,True,ori,ori,green,left,False,hard,easy,0.54,0.25,0.04,0.25,0.25,0.25,2,1.44,False,170.0,122.42,123.12,False,easy,hard,0.04,0.54,122.399938107,123.133687973,True,1.8681640625,0.0,4.0,112,0,True,0.69314718056,0.0
ti01,a,6,22,ori,1,5,False,True,ori,ori,green,left,False,hard,easy,0.54,0.25,0.04,0.25,0.25,0.25,1,0.72,False,178.0,128.18,128.88,False,easy,hard,0.04,0.54,128.168498039,128.885550976,True,1.25114893913,0.0,4.0,75,0,True,1.09861228867,0.0
ti01,a,6,23,ori,0,4,False,True,ori,ori,green,right,True,easy,easy,0.64,0.75,0.14,0.25,0.75,0.25,2,1.44,False,185.0,133.22,133.92,True,easy,easy,0.14,0.64,133.203432083,133.920259953,True,0.734722852707,1.0,9.0,44,0,True,1.38629436112,0.69314718056
ti01,a,6,24,hue,1,3,True,True,hue,hue,red,left,True,easy,hard,0.36,0.47,0.14,0.03,0.36,0.14,2,1.44,False,193.0,138.98,139.68,False,easy,hard,0.03,0.47,138.971783161,139.688380003,True,1.08489513397,0.0,4.0,65,0,True,0.0,1.09861228867
ti01,a,6,25,hue,1,3,False,False,hue,hue,red,left,True,hard,easy,0.46,0.25,0.04,0.25,0.46,0.04,0,0.0,False,201.0,144.74,145.44,False,hard,easy,0.25,0.25,144.723287106,145.440340996,False,1.43482208252,1.0,9.0,86,0,True,0.69314718056,0.0
ti01,a,6,26,hue,1,3,False,False,hue,hue,red,right,False,easy,easy,0.36,0.75,0.14,0.25,0.36,0.14,6,4.32,False,207.0,149.06,149.76,False,easy,easy,0.25,0.75,149.041651011,149.775125027,True,1.01796197891,0.0,4.0,61,0,True,1.09861228867,0.0
ti01,a,6,27,ori,1,5,True,True,ori,ori,red,left,True,hard,hard,0.46,0.47,0.04,0.03,0.47,0.03,0,0.0,False,219.0,157.7,158.4,False,hard,hard,0.04,0.46,157.677145004,158.410710096,True,1.76840400696,0.0,4.0,106,0,True,0.0,0.69314718056
ti01,a,6,28,hue,0,6,True,True,hue,hue,green,left,False,easy,hard,0.64,0.47,0.14,0.03,0.64,0.14,3,2.16,False,225.0,162.02,162.72,True,easy,hard,0.03,0.47,161.995447159,162.72886014,True,1.08457517624,1.0,9.0,65,0,True,0.0,0.0
ti01,a,6,29,hue,0,6,False,False,hue,hue,red,right,False,hard,easy,0.46,0.75,0.04,0.25,0.46,0.04,1,0.72,False,234.0,168.5,169.2,False,hard,easy,0.25,0.75,168.480422974,169.214198112,True,1.61784505844,0.0,4.0,97,0,True,0.69314718056,0.0
ti01,a,6,30,ori,1,5,True,True,ori,ori,green,right,True,hard,easy,0.54,0.75,0.04,0.25,0.75,0.25,0,0.0,False,241.0,173.54,174.24,True,easy,hard,0.04,0.54,173.515411139,174.248861074,True,1.51750588417,1.0,9.0,91,0,True,0.0,0.0
ti01,a,6,31,ori,1,5,False,False,ori,ori,green,right,True,easy,easy,0.64,0.75,0.14,0.25,0.75,0.25,1,0.72,False,247.0,177.86,178.56,True,easy,easy,0.14,0.64,177.833436966,178.566612005,True,1.25304603577,1.0,9.0,76,0,True,0.69314718056,0.0
ti01,a,6,32,hue,1,3,True,True,hue,hue,green,left,False,easy,easy,0.64,0.25,0.14,0.25,0.64,0.14,0,0.0,True,254.0,182.9,183.6,True,easy,easy,0.25,0.25,182.884938002,183.601686001,True,1.23497819901,1.0,9.0,74,0,True,0.0,0.0
ti01,a,6,33,hue,0,6,False,True,hue,hue,red,right,False,hard,hard,0.46,0.53,0.04,0.03,0.46,0.04,2,1.44,False,260.0,187.22,187.92,False,hard,hard,0.03,0.53,187.202870131,187.919867039,True,1.95151209831,0.0,4.0,117,0,True,0.69314718056,0.0
ti01,a,6,34,ori,1,5,True,True,ori,ori,green,left,False,easy,hard,0.64,0.47,0.14,0.03,0.47,0.03,0,0.0,False,268.0,192.98,193.68,False,hard,easy,0.14,0.64,192.954584122,193.688084126,False,1.43481397629,1.0,9.0,86,0,True,0.0,0.0
ti01,a,6,35,hue,1,3,True,True,hue,hue,green,right,True,easy,hard,0.64,0.53,0.14,0.03,0.64,0.14,1,0.72,False,274.0,197.3,198.0,True,easy,hard,0.03,0.53,197.272638083,198.006173134,True,1.45121788979,1.0,9.0,87,0,True,0.0,0.0
ti01,a,6,36,hue,0,6,False,True,hue,hue,green,right,True,hard,hard,0.54,0.53,0.04,0.03,0.54,0.04,5,3.6,False,281.0,202.34,203.04,True,hard,hard,0.03,0.53,202.324211121,203.040933132,True,1.83512806892,1.0,9.0,110,0,True,0.69314718056,0.0
ti01,a,6,37,ori,0,4,True,True,ori,ori,red,right,False,easy,easy,0.36,0.75,0.14,0.25,0.75,0.25,2,1.44,False,292.0,210.26,210.96,True,easy,easy,0.14,0.36,210.243112087,210.960049152,True,1.11765313148,1.0,9.0,67,0,True,0.0,0.0
ti01,a,6,38,ori,0,4,False,False,ori,ori,red,right,False,easy,hard,0.36,0.53,0.14,0.03,0.53,0.03,0,0.0,False,300.0,216.02,216.72,True,hard,easy,0.14,0.36,215.994874001,216.72834301,False,1.4181740284,0.0,4.0,85,0,True,0.69314718056,0.0
ti01,a,6,39,hue,1,3,True,True,hue,hue,red,right,False,easy,hard,0.36,0.53,0.14,0.03,0.36,0.14,1,0.72,False,306.0,220.34,221.04,False,easy,hard,0.03,0.53,220.32941699,221.046365023,True,0.934644937515,0.0,4.0,56,0,True,0.0,0.0
ti01,a,6,40,hue,1,3,False,False,hue,hue,red,right,False,hard,easy,0.46,0.75,0.04,0.25,0.46,0.04,2,1.44,False,313.0,225.38,226.08,False,hard,easy,0.25,0.75,225.364271164,226.08130312,True,1.18430495262,0.0,4.0,71,0,True,0.69314718056,0.0
ti01,a,6,41,ori,0,4,True,True,ori,ori,green,left,False,easy,hard,0.64,0.47,0.14,0.03,0.47,0.03,3,2.16,False,321.0,231.14,231.84,False,hard,easy,0.14,0.64,231.116107941,231.849756002,True,1.30107808113,0.0,4.0,78,0,True,0.0,0.0
ti01,a,6,42,ori,0,4,False,False,ori,ori,green,right,True,hard,easy,0.54,0.75,0.04,0.25,0.75,0.25,4,2.88,False,330.0,237.62,238.32,True,easy,hard,0.04,0.54,237.601410151,238.334785938,False,1.68462991714,0.0,4.0,101,0,True,0.69314718056,0.0
ti01,a,6,43,hue,1,3,True,True,hue,hue,green,left,False,hard,easy,0.54,0.25,0.04,0.25,0.54,0.04,0,0.0,False,340.0,244.82,245.52,True,hard,easy,0.25,0.25,244.803660154,245.520246029,True,2.05133795738,1.0,9.0,123,0,True,0.0,0.0
ti01,a,6,44,ori,1,5,True,True,ori,ori,red,right,False,hard,easy,0.46,0.75,0.04,0.25,0.75,0.25,3,2.16,False,346.0,249.14,249.84,True,easy,hard,0.04,0.46,249.121391058,249.85513711,True,1.23436284065,1.0,9.0,74,0,True,0.0,0.0
ti01,a,6,45,hue,1,3,True,True,hue,hue,green,right,True,hard,hard,0.54,0.53,0.04,0.03,0.54,0.04,0,0.0,False,355.0,255.62,256.32,True,hard,hard,0.03,0.53,255.606665134,256.323532104,False,2.31848812103,0.0,4.0,139,0,True,0.0,0.0
ti01,a,6,46,ori,0,4,True,True,ori,ori,red,left,True,hard,easy,0.46,0.25,0.04,0.25,0.25,0.25,0,0.0,False,361.0,259.94,260.64,False,easy,hard,0.04,0.46,259.924859047,260.641423941,True,1.08451700211,0.0,4.0,65,0,True,0.0,0.0
ti01,a,6,47,ori,1,5,False,True,ori,ori,red,right,False,hard,hard,0.46,0.53,0.04,0.03,0.53,0.03,1,0.72,False,367.0,264.26,264.96,True,hard,hard,0.04,0.46,264.242697954,264.959675074,False,1.56772398949,0.0,4.0,94,0,True,0.69314718056,0.0
ti01,a,6,48,hue,1,3,True,True,hue,hue,red,right,False,hard,hard,0.46,0.53,0.04,0.03,0.46,0.04,6,4.32,True,374.0,269.3,270.0,False,hard,hard,0.03,0.53,269.277855158,270.01117301,True,1.76805901527,0.0,4.0,106,0,True,0.0,0.0
ti01,a,6,49,hue,1,3,False,False,hue,hue,green,left,False,easy,hard,0.64,0.47,0.14,0.03,0.64,0.14,5,3.6,False,386.0,277.94,278.64,True,easy,hard,0.03,0.47,277.913638115,278.646885157,True,1.31841683388,1.0,9.0,79,0,True,0.69314718056,0.0
ti01,a,6,50,hue,1,3,False,False,hue,hue,red,left,True,hard,hard,0.46,0.47,0.04,0.03,0.46,0.04,0,0.0,False,397.0,285.86,286.56,False,hard,hard,0.03,0.47,285.849332094,286.565926075,True,1.45383191109,0.0,4.0,88,0,True,1.09861228867,0.0
ti01,a,6,51,hue,0,6,False,True,hue,hue,red,left,True,hard,hard,0.46,0.47,0.04,0.03,0.46,0.04,0,0.0,False,403.0,290.18,290.88,False,hard,hard,0.03,0.47,290.167184114,290.884346008,False,1.9694750309,1.0,9.0,119,0,True,1.38629436112,0.69314718056
ti01,a,6,52,ori,1,5,True,True,ori,ori,green,left,False,hard,hard,0.54,0.47,0.04,0.03,0.47,0.03,1,0.72,False,409.0,294.5,295.2,False,hard,hard,0.04,0.54,294.485085964,295.201858044,False,1.50135588646,1.0,9.0,90,0,True,0.0,1.09861228867
ti01,a,6,53,ori,0,4,False,True,ori,ori,red,left,True,easy,easy,0.36,0.25,0.14,0.25,0.25,0.25,8,5.76,False,416.0,299.54,300.24,False,easy,easy,0.14,0.36,299.51996398,300.253503084,True,1.71806383133,0.0,4.0,103,0,True,0.69314718056,0.0
ti01,a,6,54,ori,0,4,False,False,ori,ori,red,right,False,hard,easy,0.46,0.75,0.04,0.25,0.75,0.25,4,2.88,False,430.0,309.62,310.32,True,easy,hard,0.04,0.46,309.60622406,310.323219061,True,0.984411001205,1.0,9.0,59,0,True,1.09861228867,0.0
ti01,a,6,55,hue,0,6,True,True,hue,hue,green,left,False,easy,easy,0.64,0.25,0.14,0.25,0.64,0.14,1,0.72,False,440.0,316.82,317.52,True,easy,easy,0.25,0.25,316.808457136,317.525305986,True,1.85144805908,1.0,9.0,111,0,True,0.0,0.69314718056
ti01,a,6,56,ori,1,5,True,True,ori,ori,red,left,True,easy,easy,0.36,0.25,0.14,0.25,0.25,0.25,2,1.44,False,447.0,321.86,322.56,False,easy,easy,0.14,0.36,321.843500137,322.560235977,True,1.03417515755,0.0,4.0,62,0,True,0.0,0.0
ti01,a,6,57,hue,0,6,True,True,hue,hue,red,right,False,easy,hard,0.36,0.53,0.14,0.03,0.36,0.14,0,0.0,False,455.0,327.62,328.32,False,easy,hard,0.03,0.53,327.594880104,328.328679085,True,1.50154018402,0.0,4.0,90,0,True,0.0,0.0
ti01,a,6,58,hue,1,3,False,True,hue,hue,green,right,True,easy,easy,0.64,0.75,0.14,0.25,0.64,0.14,0,0.0,False,461.0,331.94,332.64,True,easy,easy,0.25,0.75,331.92978096,332.646468163,True,0.901275157928,1.0,9.0,54,0,True,0.69314718056,0.0
ti01,a,6,59,hue,0,6,False,True,hue,hue,red,left,True,easy,hard,0.36,0.47,0.14,0.03,0.36,0.14,4,2.88,False,467.0,336.26,336.96,False,easy,hard,0.03,0.47,336.247650146,336.964545012,True,1.0846221447,0.0,4.0,65,0,True,1.09861228867,0.0
ti01,a,6,60,hue,0,6,False,False,hue,hue,green,left,False,hard,hard,0.54,0.47,0.04,0.03,0.54,0.04,0,0.0,False,477.0,343.46,344.16,True,hard,hard,0.03,0.47,343.449640036,344.166756153,True,1.95126700401,1.0,9.0,117,0,True,1.38629436112,0.69314718056
ti01,a,6,61,hue,0,6,False,False,hue,hue,green,right,True,easy,hard,0.64,0.53,0.14,0.03,0.64,0.14,0,0.0,False,483.0,347.78,348.48,True,easy,hard,0.03,0.53,347.767575026,348.48466301,True,0.901319980621,1.0,9.0,54,0,True,1.60943791243,1.09861228867
ti01,a,6,62,ori,1,5,True,True,ori,ori,red,left,True,easy,hard,0.36,0.47,0.14,0.03,0.47,0.03,2,1.44,False,489.0,352.1,352.8,False,hard,easy,0.14,0.36,352.085844994,352.802670956,True,1.68481898308,0.0,4.0,101,0,True,0.0,1.38629436112
ti01,a,6,63,ori,1,5,False,False,ori,ori,green,left,False,easy,easy,0.64,0.25,0.14,0.25,0.25,0.25,0,0.0,False,497.0,357.86,358.56,False,easy,easy,0.14,0.64,357.837661982,358.570994139,True,1.18412518501,0.0,4.0,71,0,True,0.69314718056,0.0
ti01,b,7,0,ori,1,5,True,True,ori,ori,green,right,True,hard,hard,0.54,0.53,0.04,0.03,0.53,0.03,0,0.0,False,0.0,0.02,0.72,True,hard,hard,0.04,0.54,0.0374021530151,0.724204063416,False,1.81772303581,0.0,4.0,109,0,True,0.0,0.0
ti01,b,7,1,ori,0,4,False,True,ori,ori,green,right,True,hard,easy,0.54,0.75,0.04,0.25,0.75,0.25,5,3.6,False,6.0,4.34,5.04,True,easy,hard,0.04,0.54,4.32502102852,5.04196095467,True,1.06798005104,1.0,9.0,64,0,True,0.69314718056,0.0
ti01,b,7,2,hue,1,3,True,True,hue,hue,green,left,False,easy,hard,0.64,0.47,0.14,0.03,0.64,0.14,2,1.44,False,17.0,12.26,12.96,True,easy,hard,0.03,0.47,12.2440960407,12.960996151,True,0.950840950012,1.0,9.0,57,0,True,0.0,0.0
ti01,b,7,3,ori,0,4,True,True,ori,ori,green,right,True,hard,hard,0.54,0.53,0.04,0.03,0.53,0.03,2,1.44,False,25.0,18.02,18.72,True,hard,hard,0.04,0.54,17.9958519936,18.729418993,False,1.38444900513,0.0,4.0,83,0,True,0.0,0.0
ti01,b,7,4,hue,0,6,True,True,hue,hue,green,left,False,easy,hard,0.64,0.47,0.14,0.03,0.64,0.14,1,0.72,False,33.0,23.78,24.48,True,easy,hard,0.03,0.47,23.7643930912,24.4809989929,True,1.25178194046,1.0,9.0,75,0,True,0.0,0.0
ti01,b,7,5,ori,0,4,True,True,ori,ori,green,right,True,easy,hard,0.64,0.53,0.14,0.03,0.53,0.03,0,0.0,False,40.0,28.82,29.52,True,hard,easy,0.14,0.64,28.7991740704,29.5325119495,True,1.71830701828,1.0,9.0,103,0,True,0.0,0.0
ti01,b,7,6,hue,1,3,True,True,hue,hue,red,left,True,easy,easy,0.36,0.25,0.14,0.25,0.36,0.14,6,4.32,False,46.0,33.14,33.84,False,easy,easy,0.25,0.25,33.1170141697,33.8507010937,True,1.56753897667,0.0,4.0,94,0,True,0.0,0.0
ti01,b,7,7,hue,1,3,False,False,hue,hue,red,right,False,hard,easy,0.46,0.75,0.04,0.25,0.46,0.04,0,0.0,False,58.0,41.78,42.48,False,hard,easy,0.25,0.75,41.7530970573,42.4864890575,True,1.18631505966,0.0,4.0,72,0,True,0.69314718056,0.0
ti01,b,7,8,ori,1,5,True,True,ori,ori,red,left,True,easy,easy,0.36,0.25,0.14,0.25,0.25,0.25,3,2.16,False,64.0,46.1,46.8,False,easy,easy,0.14,0.36,46.0875911713,46.804516077,True,1.25151395798,0.0,4.0,75,0,True,0.0,0.0
ti01,b,7,9,ori,1,5,False,False,ori,ori,green,right,True,easy,hard,0.64,0.53,0.14,0.03,0.53,0.03,0,0.0,False,73.0,52.58,53.28,True,hard,easy,0.14,0.64,52.5561599731,53.2897210121,False,1.63461399078,0.0,4.0,98,0,True,0.69314718056,0.0
ti01,b,7,10,ori,0,4,False,True,ori,ori,red,left,True,hard,easy,0.46,0.25,0.04,0.25,0.25,0.25,0,0.0,False,79.0,56.9,57.6,False,easy,hard,0.04,0.46,56.8742461205,57.6075761318,True,0.984496116638,0.0,4.0,59,0,True,1.09861228867,0.0
ti01,b,7,11,hue,0,6,True,True,hue,hue,green,right,True,easy,hard,0.64,0.53,0.14,0.03,0.64,0.14,1,0.72,False,85.0,61.22,61.92,True,easy,hard,0.03,0.53,61.2088880539,61.9257850647,True,0.884433984756,1.0,9.0,53,0,True,0.0,0.69314718056
ti01,b,7,12,hue,0,6,False,False,hue,hue,green,left,False,easy,easy,0.64,0.25,0.14,0.25,0.64,0.14,4,2.88,False,92.0,66.26,66.96,True,easy,easy,0.25,0.25,66.2436130047,66.9604821205,True,0.717596769333,1.0,9.0,43,0,True,0.69314718056,0.0
ti01,b,7,13,ori,1,5,True,True,ori,ori,red,left,True,easy,hard,0.36,0.47,0.14,0.03,0.47,0.03,2,1.44,False,102.0,73.46,74.16,False,hard,easy,0.14,0.36,73.4457399845,74.1626181602,True,1.55140709877,0.0,4.0,93,0,True,0.0,0.0
ti01,b,7,14,hue,0,6,True,True,hue,hue,red,right,False,easy,hard,0.36,0.53,0.14,0.03,0.36,0.14,0,0.0,False,110.0,79.22,79.92,False,easy,hard,0.03,0.53,79.1974620819,79.9311990738,True,1.18464994431,0.0,4.0,71,0,True,0.0,0.0
ti01,b,7,15,hue,0,6,False,False,hue,hue,green,right,True,easy,easy,0.64,0.75,0.14,0.25,0.64,0.14,0,0.0,False,116.0,83.54,84.24,True,easy,easy,0.25,0.75,83.5152440071,84.2490229607,True,0.817988872528,1.0,9.0,49,0,True,0.69314718056,0.0
ti01,b,7,16,hue,1,3,False,True,hue,hue,green,right,True,hard,easy,0.54,0.75,0.04,0.25,0.54,0.04,1,0.72,True,122.0,87.86,88.56,True,hard,easy,0.25,0.75,87.833438158,88.5670111179,True,0.817525148392,1.0,9.0,49,0,True,1.09861228867,0.0
ti01,b,7,17,ori,1,5,True,True,ori,ori,green,left,False,hard,hard,0.54,0.47,0.04,0.03,0.47,0.03,0,0.0,False,129.0,92.9,93.6,False,hard,hard,0.04,0.54,92.8850660324,93.6016681194,False,1.50190711021,1.0,9.0,90,0,True,0.0,0.69314718056
ti01,b,7,18,hue,1,3,True,True,hue,hue,green,left,False,easy,easy,0.64,0.25,0.14,0.25,0.64,0.14,0,0.0,False,135.0,97.22,97.92,True,easy,easy,0.25,0.25,97.202917099,97.9198260307,True,0.767850875854,1.0,9.0,46,0,True,0.0,0.0
ti01,b,7,19,hue,1,3,False,False,hue,hue,red,left,True,hard,hard,0.46,0.47,0.04,0.03,0.46,0.04,0,0.0,False,141.0,101.54,102.24,False,hard,hard,0.03,0.47,101.520817995,102.25448513,False,1.86803102493,1.0,9.0,112,0,True,0.69314718056,0.0
ti01,b,7,20,ori,1,5,True,True,ori,ori,red,right,False,easy,hard,0.36,0.53,0.14,0.03,0.53,0.03,2,1.44,False,147.0,105.86,106.56,True,hard,easy,0.14,0.36,105.838893175,106.572276115,True,2.18509817123,1.0,9.0,131,0,True,0.0,0.0
ti01,b,7,21,hue,0,6,True,True,hue,hue,red,right,False,easy,easy,0.36,0.75,0.14,0.25,0.36,0.14,1,0.72,False,155.0,111.62,112.32,False,easy,easy,0.25,0.75,111.607023954,112.324166059,True,1.41786408424,0.0,4.0,85,0,True,0.0,0.0
ti01,b,7,22,hue,0,6,False,False,hue,hue,green,right,True,hard,hard,0.54,0.53,0.04,0.03,0.54,0.04,3,2.16,False,162.0,116.66,117.36,True,hard,hard,0.03,0.53,116.642191172,117.358937025,True,1.11776590347,1.0,9.0,67,0,True,0.69314718056,0.0
ti01,b,7,23,ori,1,5,True,True,ori,ori,red,right,False,hard,hard,0.46,0.53,0.04,0.03,0.53,0.03,5,3.6,False,171.0,123.14,123.84,True,hard,hard,0.04,0.46,123.127418041,123.844392061,False,1.78461003304,0.0,4.0,107,0,True,0.0,0.0
ti01,b,7,24,hue,1,3,True,True,hue,hue,red,left,True,easy,hard,0.36,0.47,0.14,0.03,0.36,0.14,0,0.0,False,182.0,131.06,131.76,False,easy,hard,0.03,0.47,131.046502113,131.763354063,True,1.96828889847,0.0,4.0,118,0,True,0.0,0.0
ti01,b,7,25,ori,0,4,True,True,ori,ori,green,left,False,hard,hard,0.54,0.47,0.04,0.03,0.47,0.03,3,2.16,False,188.0,135.38,136.08,False,hard,hard,0.04,0.54,135.364578962,136.081352949,True,1.71850800514,0.0,4.0,103,0,True,0.0,0.0
ti01,b,7,26,hue,1,3,True,True,hue,hue,red,right,False,hard,hard,0.46,0.53,0.04,0.03,0.46,0.04,3,2.16,False,197.0,141.86,142.56,False,hard,hard,0.03,0.53,141.83317399,142.566488981,False,2.01837587357,1.0,9.0,121,0,True,0.0,0.0
ti01,b,7,27,hue,1,3,False,False,hue,hue,red,right,False,easy,hard,0.36,0.53,0.14,0.03,0.36,0.14,2,1.44,False,206.0,148.34,149.04,False,easy,hard,0.03,0.53,148.318206072,149.05193615,True,0.90115904808,0.0,4.0,54,0,True,0.69314718056,0.0
ti01,b,7,28,hue,0,6,False,True,hue,hue,green,left,False,hard,easy,0.54,0.25,0.04,0.25,0.54,0.04,0,0.0,False,214.0,154.1,154.8,True,hard,easy,0.25,0.25,154.086724043,154.803688049,True,0.70130777359,1.0,9.0,42,0,True,1.09861228867,0.0
ti01,b,7,29,hue,0,6,False,False,hue,hue,red,left,True,easy,easy,0.36,0.25,0.14,0.25,0.36,0.14,4,2.88,False,220.0,158.42,159.12,False,easy,easy,0.25,0.25,158.404687166,159.121610165,False,1.10139513016,1.0,9.0,66,0,True,1.38629436112,0.69314718056
ti01,b,7,30,hue,0,6,False,False,hue,hue,red,left,True,easy,hard,0.36,0.47,0.14,0.03,0.36,0.14,0,0.0,False,230.0,165.62,166.32,False,easy,hard,0.03,0.47,165.606836081,166.323585987,True,0.967880010605,0.0,4.0,58,0,True,1.60943791243,1.09861228867
ti01,b,7,31,hue,1,3,False,True,hue,hue,green,right,True,hard,hard,0.54,0.53,0.04,0.03,0.54,0.04,1,0.72,False,236.0,169.94,170.64,True,hard,hard,0.03,0.53,169.925014019,170.641601086,True,1.43471097946,1.0,9.0,86,0,True,1.79175946923,1.38629436112
ti01,b,7,32,hue,0,6,False,True,hue,hue,red,left,True,hard,hard,0.46,0.47,0.04,0.03,0.46,0.04,6,4.32,True,243.0,174.98,175.68,False,hard,hard,0.03,0.47,174.95967412,175.693334103,False,1.71808099747,1.0,9.0,103,0,True,1.94591014906,1.60943791243
ti01,b,7,33,ori,1,5,True,True,ori,ori,green,left,False,hard,easy,0.54,0.25,0.04,0.25,0.25,0.25,5,3.6,False,255.0,183.62,184.32,False,easy,hard,0.04,0.54,183.595512152,184.32912612,True,1.23446393013,0.0,4.0,74,0,True,0.0,1.79175946923
ti01,b,7,34,hue,1,3,True,True,hue,hue,green,left,False,hard,hard,0.54,0.47,0.04,0.03,0.54,0.04,0,0.0,False,266.0,191.54,192.24,True,hard,hard,0.03,0.47,191.51456809,192.248140097,True,1.16814899445,1.0,9.0,70,0,True,0.0,0.0
ti01,b,7,35,ori,0,4,True,True,ori,ori,red,left,True,hard,hard,0.46,0.47,0.04,0.03,0.47,0.03,0,0.0,False,272.0,195.86,196.56,False,hard,hard,0.04,0.46,195.849364042,196.565970182,True,1.70295906067,0.0,4.0,103,0,True,0.0,0.0
ti01,b,7,36,ori,1,5,False,True,ori,ori,green,left,False,easy,hard,0.64,0.47,0.14,0.03,0.47,0.03,2,1.44,False,278.0,200.18,200.88,False,hard,easy,0.14,0.64,200.167149067,200.884286165,True,1.83484697342,0.0,4.0,110,0,True,0.69314718056,0.0
ti01,b,7,37,ori,1,5,False,False,ori,ori,red,left,True,hard,hard,0.46,0.47,0.04,0.03,0.47,0.03,4,2.88,False,286.0,205.94,206.64,False,hard,hard,0.04,0.46,205.919069052,206.652379036,False,1.98466610909,1.0,9.0,119,0,True,1.09861228867,0.0
ti01,b,7,38,ori,0,4,False,True,ori,ori,green,left,False,easy,easy,0.64,0.25,0.14,0.25,0.25,0.25,0,0.0,False,296.0,213.14,213.84,False,easy,easy,0.14,0.64,213.121315956,213.854820013,True,0.800984144211,0.0,4.0,48,0,True,1.38629436112,0.69314718056
ti01,b,7,39,hue,0,6,True,True,hue,hue,red,right,False,hard,easy,0.46,0.75,0.04,0.25,0.46,0.04,0,0.0,False,302.0,217.46,218.16,False,hard,easy,0.25,0.75,217.439263105,218.172672987,False,1.53489899635,1.0,9.0,92,0,True,0.0,1.09861228867
ti01,b,7,40,ori,0,4,True,True,ori,ori,red,right,False,hard,hard,0.46,0.53,0.04,0.03,0.53,0.03,1,0.72,False,308.0,221.78,222.48,True,hard,hard,0.04,0.46,221.757297039,222.490607023,True,1.01810002327,1.0,9.0,61,0,True,0.0,0.0
ti01,b,7,41,ori,1,5,False,True,ori,ori,green,right,True,hard,easy,0.54,0.75,0.04,0.25,0.75,0.25,1,0.72,False,315.0,226.82,227.52,True,easy,hard,0.04,0.54,226.791998148,227.525501013,True,1.18438696861,1.0,9.0,71,0,True,0.69314718056,0.0
ti01,b,7,42,hue,1,3,True,True,hue,hue,red,left,True,hard,easy,0.46,0.25,0.04,0.25,0.46,0.04,0,0.0,False,322.0,231.86,232.56,False,hard,easy,0.25,0.25,231.84365201,232.560150146,False,2.03536605835,1.0,9.0,122,0,True,0.0,0.0
ti01,b,7,43,ori,0,4,True,True,ori,ori,red,left,True,easy,hard,0.36,0.47,0.14,0.03,0.47,0.03,1,0.72,False,328.0,236.18,236.88,False,hard,easy,0.14,0.36,236.161448956,236.895013094,True,2.38486003876,0.0,4.0,143,0,True,0.0,0.0
ti01,b,7,44,ori,1,5,False,True,ori,ori,green,left,False,easy,easy,0.64,0.25,0.14,0.25,0.25,0.25,1,0.72,False,335.0,241.22,241.92,False,easy,easy,0.14,0.64,241.196354151,241.929939032,True,1.05103206635,0.0,4.0,63,0,True,0.69314718056,0.0
